ExperimentName,Subject,Session,Clock.Information,Clock.StartTimeOfDay,Display.RefreshRate,Group,RandomSeed,SessionDate,SessionTime,SessionTimeUtc,Block,answer1[Block],block1,block1.Cycle,block1.Sample,block2,block2.Cycle,block2.Sample,lx,lx.Cycle,lx.Sample,panel1111.ACC,panel1111.CRESP,panel1111.DurationError,panel1111.OnsetDelay,panel1111.OnsetTime,panel1111.RESP,panel1111.RT,panel1111.RTTime,panel1121.ACC,panel1121.CRESP,panel1121.DurationError,panel1121.OnsetDelay,panel1121.OnsetTime,panel1121.RESP,panel1121.RT,panel1121.RTTime,Procedure[Block],Running[Block],sound111,sound112,Trial,answer1[Trial],lxlist,lxlist.Cycle,lxlist.Sample,lxpanel1.ACC,lxpanel1.CRESP,lxpanel1.DurationError,lxpanel1.OnsetDelay,lxpanel1.OnsetTime,lxpanel1.RESP,lxpanel1.RT,lxpanel1.RTTime,lxsound,Procedure[Trial],Running[Trial]
nv,12,1,"<?xml version=""1.0""?>\n<Clock xmlns:dt=""urn:schemas-microsoft-com:datatypes""><Description dt:dt=""string"">E-Prime Primary Realtime Clock</Description><StartTime><Timestamp dt:dt=""int"">0</Timestamp><DateUtc dt:dt=""string"">2016-12-23T06:15:25Z</DateUtc></StartTime><FrequencyChanges><FrequencyChange><Frequency dt:dt=""r8"">3579545</Frequency><Timestamp dt:dt=""r8"">68448262832</Timestamp><Current dt:dt=""r8"">0</Current><DateUtc dt:dt=""string"">2016-12-23T06:15:25Z</DateUtc></FrequencyChange></FrequencyChanges></Clock>\n",2016/12/23 14:15,84.839,1,-270520374,12-23-2016,14:15:26,6:15:26,1,NA,NA,NA,NA,NA,NA,NA,1,1,1,NA,NA,NA,NA,NA,NA,NA,NA,NA,NA,NA,NA,NA,NA,NA,NA,lxProc,lx,NA,NA,1,u,4,1,1,0,,-999999,81,41119,1,2165,43284,nv audio/u1_24k.wav,lxpro1,lxlist
nv,12,1,"<?xml version=""1.0""?>\n<Clock xmlns:dt=""urn:schemas-microsoft-com:datatypes""><Description dt:dt=""string"">E-Prime Primary Realtime Clock</Description><StartTime><Timestamp dt:dt=""int"">0</Timestamp><DateUtc dt:dt=""string"">2016-12-23T06:15:25Z</DateUtc></StartTime><FrequencyChanges><FrequencyChange><Frequency dt:dt=""r8"">3579545</Frequency><Timestamp dt:dt=""r8"">68448262832</Timestamp><Current dt:dt=""r8"">0</Current><DateUtc dt:dt=""string"">2016-12-23T06:15:25Z</DateUtc></FrequencyChange></FrequencyChanges></Clock>\n",2016/12/23 14:15,84.839,1,-270520374,12-23-2016,14:15:26,6:15:26,1,NA,NA,NA,NA,NA,NA,NA,1,1,1,NA,NA,NA,NA,NA,NA,NA,NA,NA,NA,NA,NA,NA,NA,NA,NA,lxProc,lx,NA,NA,2,i,5,1,2,0,,-999999,43,43830,1,650,44480,nv audio/y1_24k.wav,lxpro1,lxlist
nv,12,1,"<?xml version=""1.0""?>\n<Clock xmlns:dt=""urn:schemas-microsoft-com:datatypes""><Description dt:dt=""string"">E-Prime Primary Realtime Clock</Description><StartTime><Timestamp dt:dt=""int"">0</Timestamp><DateUtc dt:dt=""string"">2016-12-23T06:15:25Z</DateUtc></StartTime><FrequencyChanges><FrequencyChange><Frequency dt:dt=""r8"">3579545</Frequency><Timestamp dt:dt=""r8"">68448262832</Timestamp><Current dt:dt=""r8"">0</Current><DateUtc dt:dt=""string"">2016-12-23T06:15:25Z</DateUtc></FrequencyChange></FrequencyChanges></Clock>\n",2016/12/23 14:15,84.839,1,-270520374,12-23-2016,14:15:26,6:15:26,1,NA,NA,NA,NA,NA,NA,NA,1,1,1,NA,NA,NA,NA,NA,NA,NA,NA,NA,NA,NA,NA,NA,NA,NA,NA,lxProc,lx,NA,NA,3,a,2,1,3,0,,-999999,66,45056,1,2193,47249,nv audio/e1_24k.wav,lxpro1,lxlist
nv,12,1,"<?xml version=""1.0""?>\n<Clock xmlns:dt=""urn:schemas-microsoft-com:datatypes""><Description dt:dt=""string"">E-Prime Primary Realtime Clock</Description><StartTime><Timestamp dt:dt=""int"">0</Timestamp><DateUtc dt:dt=""string"">2016-12-23T06:15:25Z</DateUtc></StartTime><FrequencyChanges><FrequencyChange><Frequency dt:dt=""r8"">3579545</Frequency><Timestamp dt:dt=""r8"">68448262832</Timestamp><Current dt:dt=""r8"">0</Current><DateUtc dt:dt=""string"">2016-12-23T06:15:25Z</DateUtc></FrequencyChange></FrequencyChanges></Clock>\n",2016/12/23 14:15,84.839,1,-270520374,12-23-2016,14:15:26,6:15:26,1,NA,NA,NA,NA,NA,NA,NA,1,1,1,NA,NA,NA,NA,NA,NA,NA,NA,NA,NA,NA,NA,NA,NA,NA,NA,lxProc,lx,NA,NA,4,a,1,1,4,0,,-999999,65,47825,1,1262,49087,nv audio/a1_24k.wav,lxpro1,lxlist
nv,12,1,"<?xml version=""1.0""?>\n<Clock xmlns:dt=""urn:schemas-microsoft-com:datatypes""><Description dt:dt=""string"">E-Prime Primary Realtime Clock</Description><StartTime><Timestamp dt:dt=""int"">0</Timestamp><DateUtc dt:dt=""string"">2016-12-23T06:15:25Z</DateUtc></StartTime><FrequencyChanges><FrequencyChange><Frequency dt:dt=""r8"">3579545</Frequency><Timestamp dt:dt=""r8"">68448262832</Timestamp><Current dt:dt=""r8"">0</Current><DateUtc dt:dt=""string"">2016-12-23T06:15:25Z</DateUtc></FrequencyChange></FrequencyChanges></Clock>\n",2016/12/23 14:15,84.839,1,-270520374,12-23-2016,14:15:26,6:15:26,1,NA,NA,NA,NA,NA,NA,NA,1,1,1,NA,NA,NA,NA,NA,NA,NA,NA,NA,NA,NA,NA,NA,NA,NA,NA,lxProc,lx,NA,NA,5,i,3,1,5,0,,-999999,43,49641,1,580,50221,nv audio/i1_24k.wav,lxpro1,lxlist
nv,12,1,"<?xml version=""1.0""?>\n<Clock xmlns:dt=""urn:schemas-microsoft-com:datatypes""><Description dt:dt=""string"">E-Prime Primary Realtime Clock</Description><StartTime><Timestamp dt:dt=""int"">0</Timestamp><DateUtc dt:dt=""string"">2016-12-23T06:15:25Z</DateUtc></StartTime><FrequencyChanges><FrequencyChange><Frequency dt:dt=""r8"">3579545</Frequency><Timestamp dt:dt=""r8"">68448262832</Timestamp><Current dt:dt=""r8"">0</Current><DateUtc dt:dt=""string"">2016-12-23T06:15:25Z</DateUtc></FrequencyChange></FrequencyChanges></Clock>\n",2016/12/23 14:15,84.839,1,-270520374,12-23-2016,14:15:26,6:15:26,1,NA,NA,NA,NA,NA,NA,NA,1,1,1,NA,NA,NA,NA,NA,NA,NA,NA,NA,NA,NA,NA,NA,NA,NA,NA,lxProc,lx,NA,NA,6,a,1,2,6,0,,-999999,30,50760,1,790,51550,nv audio/a1_24k.wav,lxpro1,lxlist
nv,12,1,"<?xml version=""1.0""?>\n<Clock xmlns:dt=""urn:schemas-microsoft-com:datatypes""><Description dt:dt=""string"">E-Prime Primary Realtime Clock</Description><StartTime><Timestamp dt:dt=""int"">0</Timestamp><DateUtc dt:dt=""string"">2016-12-23T06:15:25Z</DateUtc></StartTime><FrequencyChanges><FrequencyChange><Frequency dt:dt=""r8"">3579545</Frequency><Timestamp dt:dt=""r8"">68448262832</Timestamp><Current dt:dt=""r8"">0</Current><DateUtc dt:dt=""string"">2016-12-23T06:15:25Z</DateUtc></FrequencyChange></FrequencyChanges></Clock>\n",2016/12/23 14:15,84.839,1,-270520374,12-23-2016,14:15:26,6:15:26,1,NA,NA,NA,NA,NA,NA,NA,1,1,1,NA,NA,NA,NA,NA,NA,NA,NA,NA,NA,NA,NA,NA,NA,NA,NA,lxProc,lx,NA,NA,7,i,5,2,7,0,,-999999,30,52092,1,604,52696,nv audio/y1_24k.wav,lxpro1,lxlist
nv,12,1,"<?xml version=""1.0""?>\n<Clock xmlns:dt=""urn:schemas-microsoft-com:datatypes""><Description dt:dt=""string"">E-Prime Primary Realtime Clock</Description><StartTime><Timestamp dt:dt=""int"">0</Timestamp><DateUtc dt:dt=""string"">2016-12-23T06:15:25Z</DateUtc></StartTime><FrequencyChanges><FrequencyChange><Frequency dt:dt=""r8"">3579545</Frequency><Timestamp dt:dt=""r8"">68448262832</Timestamp><Current dt:dt=""r8"">0</Current><DateUtc dt:dt=""string"">2016-12-23T06:15:25Z</DateUtc></FrequencyChange></FrequencyChanges></Clock>\n",2016/12/23 14:15,84.839,1,-270520374,12-23-2016,14:15:26,6:15:26,1,NA,NA,NA,NA,NA,NA,NA,1,1,1,NA,NA,NA,NA,NA,NA,NA,NA,NA,NA,NA,NA,NA,NA,NA,NA,lxProc,lx,NA,NA,8,u,4,2,8,0,,-999999,54,53259,1,561,53820,nv audio/u1_24k.wav,lxpro1,lxlist
nv,12,1,"<?xml version=""1.0""?>\n<Clock xmlns:dt=""urn:schemas-microsoft-com:datatypes""><Description dt:dt=""string"">E-Prime Primary Realtime Clock</Description><StartTime><Timestamp dt:dt=""int"">0</Timestamp><DateUtc dt:dt=""string"">2016-12-23T06:15:25Z</DateUtc></StartTime><FrequencyChanges><FrequencyChange><Frequency dt:dt=""r8"">3579545</Frequency><Timestamp dt:dt=""r8"">68448262832</Timestamp><Current dt:dt=""r8"">0</Current><DateUtc dt:dt=""string"">2016-12-23T06:15:25Z</DateUtc></FrequencyChange></FrequencyChanges></Clock>\n",2016/12/23 14:15,84.839,1,-270520374,12-23-2016,14:15:26,6:15:26,1,NA,NA,NA,NA,NA,NA,NA,1,1,1,NA,NA,NA,NA,NA,NA,NA,NA,NA,NA,NA,NA,NA,NA,NA,NA,lxProc,lx,NA,NA,9,e,2,2,9,0,,-999999,31,54356,1,762,55118,nv audio/e1_24k.wav,lxpro1,lxlist
nv,12,1,"<?xml version=""1.0""?>\n<Clock xmlns:dt=""urn:schemas-microsoft-com:datatypes""><Description dt:dt=""string"">E-Prime Primary Realtime Clock</Description><StartTime><Timestamp dt:dt=""int"">0</Timestamp><DateUtc dt:dt=""string"">2016-12-23T06:15:25Z</DateUtc></StartTime><FrequencyChanges><FrequencyChange><Frequency dt:dt=""r8"">3579545</Frequency><Timestamp dt:dt=""r8"">68448262832</Timestamp><Current dt:dt=""r8"">0</Current><DateUtc dt:dt=""string"">2016-12-23T06:15:25Z</DateUtc></FrequencyChange></FrequencyChanges></Clock>\n",2016/12/23 14:15,84.839,1,-270520374,12-23-2016,14:15:26,6:15:26,1,NA,NA,NA,NA,NA,NA,NA,1,1,1,NA,NA,NA,NA,NA,NA,NA,NA,NA,NA,NA,NA,NA,NA,NA,NA,lxProc,lx,NA,NA,10,i,3,2,10,0,,-999999,30,55652,1,599,56251,nv audio/i1_24k.wav,lxpro1,lxlist
nv,12,1,"<?xml version=""1.0""?>\n<Clock xmlns:dt=""urn:schemas-microsoft-com:datatypes""><Description dt:dt=""string"">E-Prime Primary Realtime Clock</Description><StartTime><Timestamp dt:dt=""int"">0</Timestamp><DateUtc dt:dt=""string"">2016-12-23T06:15:25Z</DateUtc></StartTime><FrequencyChanges><FrequencyChange><Frequency dt:dt=""r8"">3579545</Frequency><Timestamp dt:dt=""r8"">68448262832</Timestamp><Current dt:dt=""r8"">0</Current><DateUtc dt:dt=""string"">2016-12-23T06:15:25Z</DateUtc></FrequencyChange></FrequencyChanges></Clock>\n",2016/12/23 14:15,84.839,1,-270520374,12-23-2016,14:15:26,6:15:26,2,i,5,1,1,NA,NA,NA,NA,NA,NA,0,,-999999,60,59259,1,591,59850,NA,NA,NA,NA,NA,NA,NA,NA,aexppro111,block1,nv audio/y1_24k.wav,NA,NA,NA,NA,NA,NA,NA,NA,NA,NA,NA,NA,NA,NA,NA,NA,NA
nv,12,1,"<?xml version=""1.0""?>\n<Clock xmlns:dt=""urn:schemas-microsoft-com:datatypes""><Description dt:dt=""string"">E-Prime Primary Realtime Clock</Description><StartTime><Timestamp dt:dt=""int"">0</Timestamp><DateUtc dt:dt=""string"">2016-12-23T06:15:25Z</DateUtc></StartTime><FrequencyChanges><FrequencyChange><Frequency dt:dt=""r8"">3579545</Frequency><Timestamp dt:dt=""r8"">68448262832</Timestamp><Current dt:dt=""r8"">0</Current><DateUtc dt:dt=""string"">2016-12-23T06:15:25Z</DateUtc></FrequencyChange></FrequencyChanges></Clock>\n",2016/12/23 14:15,84.839,1,-270520374,12-23-2016,14:15:26,6:15:26,3,a,1,1,2,NA,NA,NA,NA,NA,NA,0,,-999999,31,60391,1,734,61125,NA,NA,NA,NA,NA,NA,NA,NA,aexppro111,block1,nv audio/a1_24k.wav,NA,NA,NA,NA,NA,NA,NA,NA,NA,NA,NA,NA,NA,NA,NA,NA,NA
nv,12,1,"<?xml version=""1.0""?>\n<Clock xmlns:dt=""urn:schemas-microsoft-com:datatypes""><Description dt:dt=""string"">E-Prime Primary Realtime Clock</Description><StartTime><Timestamp dt:dt=""int"">0</Timestamp><DateUtc dt:dt=""string"">2016-12-23T06:15:25Z</DateUtc></StartTime><FrequencyChanges><FrequencyChange><Frequency dt:dt=""r8"">3579545</Frequency><Timestamp dt:dt=""r8"">68448262832</Timestamp><Current dt:dt=""r8"">0</Current><DateUtc dt:dt=""string"">2016-12-23T06:15:25Z</DateUtc></FrequencyChange></FrequencyChanges></Clock>\n",2016/12/23 14:15,84.839,1,-270520374,12-23-2016,14:15:26,6:15:26,4,i,3,1,3,NA,NA,NA,NA,NA,NA,0,,-999999,31,61664,1,638,62302,NA,NA,NA,NA,NA,NA,NA,NA,aexppro111,block1,nv audio/i1_24k.wav,NA,NA,NA,NA,NA,NA,NA,NA,NA,NA,NA,NA,NA,NA,NA,NA,NA
nv,12,1,"<?xml version=""1.0""?>\n<Clock xmlns:dt=""urn:schemas-microsoft-com:datatypes""><Description dt:dt=""string"">E-Prime Primary Realtime Clock</Description><StartTime><Timestamp dt:dt=""int"">0</Timestamp><DateUtc dt:dt=""string"">2016-12-23T06:15:25Z</DateUtc></StartTime><FrequencyChanges><FrequencyChange><Frequency dt:dt=""r8"">3579545</Frequency><Timestamp dt:dt=""r8"">68448262832</Timestamp><Current dt:dt=""r8"">0</Current><DateUtc dt:dt=""string"">2016-12-23T06:15:25Z</DateUtc></FrequencyChange></FrequencyChanges></Clock>\n",2016/12/23 14:15,84.839,1,-270520374,12-23-2016,14:15:26,6:15:26,5,e,2,1,4,NA,NA,NA,NA,NA,NA,0,,-999999,30,62842,1,931,63773,NA,NA,NA,NA,NA,NA,NA,NA,aexppro111,block1,nv audio/e1_24k.wav,NA,NA,NA,NA,NA,NA,NA,NA,NA,NA,NA,NA,NA,NA,NA,NA,NA
nv,12,1,"<?xml version=""1.0""?>\n<Clock xmlns:dt=""urn:schemas-microsoft-com:datatypes""><Description dt:dt=""string"">E-Prime Primary Realtime Clock</Description><StartTime><Timestamp dt:dt=""int"">0</Timestamp><DateUtc dt:dt=""string"">2016-12-23T06:15:25Z</DateUtc></StartTime><FrequencyChanges><FrequencyChange><Frequency dt:dt=""r8"">3579545</Frequency><Timestamp dt:dt=""r8"">68448262832</Timestamp><Current dt:dt=""r8"">0</Current><DateUtc dt:dt=""string"">2016-12-23T06:15:25Z</DateUtc></FrequencyChange></FrequencyChanges></Clock>\n",2016/12/23 14:15,84.839,1,-270520374,12-23-2016,14:15:26,6:15:26,6,u,4,1,5,NA,NA,NA,NA,NA,NA,0,,-999999,54,64339,1,323,64662,NA,NA,NA,NA,NA,NA,NA,NA,aexppro111,block1,nv audio/u1_24k.wav,NA,NA,NA,NA,NA,NA,NA,NA,NA,NA,NA,NA,NA,NA,NA,NA,NA
nv,12,1,"<?xml version=""1.0""?>\n<Clock xmlns:dt=""urn:schemas-microsoft-com:datatypes""><Description dt:dt=""string"">E-Prime Primary Realtime Clock</Description><StartTime><Timestamp dt:dt=""int"">0</Timestamp><DateUtc dt:dt=""string"">2016-12-23T06:15:25Z</DateUtc></StartTime><FrequencyChanges><FrequencyChange><Frequency dt:dt=""r8"">3579545</Frequency><Timestamp dt:dt=""r8"">68448262832</Timestamp><Current dt:dt=""r8"">0</Current><DateUtc dt:dt=""string"">2016-12-23T06:15:25Z</DateUtc></FrequencyChange></FrequencyChanges></Clock>\n",2016/12/23 14:15,84.839,1,-270520374,12-23-2016,14:15:26,6:15:26,7,u,4,2,6,NA,NA,NA,NA,NA,NA,0,,-999999,31,65200,1,483,65683,NA,NA,NA,NA,NA,NA,NA,NA,aexppro111,block1,nv audio/u1_24k.wav,NA,NA,NA,NA,NA,NA,NA,NA,NA,NA,NA,NA,NA,NA,NA,NA,NA
nv,12,1,"<?xml version=""1.0""?>\n<Clock xmlns:dt=""urn:schemas-microsoft-com:datatypes""><Description dt:dt=""string"">E-Prime Primary Realtime Clock</Description><StartTime><Timestamp dt:dt=""int"">0</Timestamp><DateUtc dt:dt=""string"">2016-12-23T06:15:25Z</DateUtc></StartTime><FrequencyChanges><FrequencyChange><Frequency dt:dt=""r8"">3579545</Frequency><Timestamp dt:dt=""r8"">68448262832</Timestamp><Current dt:dt=""r8"">0</Current><DateUtc dt:dt=""string"">2016-12-23T06:15:25Z</DateUtc></FrequencyChange></FrequencyChanges></Clock>\n",2016/12/23 14:15,84.839,1,-270520374,12-23-2016,14:15:26,6:15:26,8,a,1,2,7,NA,NA,NA,NA,NA,NA,0,,-999999,42,66237,1,877,67114,NA,NA,NA,NA,NA,NA,NA,NA,aexppro111,block1,nv audio/a1_24k.wav,NA,NA,NA,NA,NA,NA,NA,NA,NA,NA,NA,NA,NA,NA,NA,NA,NA
nv,12,1,"<?xml version=""1.0""?>\n<Clock xmlns:dt=""urn:schemas-microsoft-com:datatypes""><Description dt:dt=""string"">E-Prime Primary Realtime Clock</Description><StartTime><Timestamp dt:dt=""int"">0</Timestamp><DateUtc dt:dt=""string"">2016-12-23T06:15:25Z</DateUtc></StartTime><FrequencyChanges><FrequencyChange><Frequency dt:dt=""r8"">3579545</Frequency><Timestamp dt:dt=""r8"">68448262832</Timestamp><Current dt:dt=""r8"">0</Current><DateUtc dt:dt=""string"">2016-12-23T06:15:25Z</DateUtc></FrequencyChange></FrequencyChanges></Clock>\n",2016/12/23 14:15,84.839,1,-270520374,12-23-2016,14:15:26,6:15:26,9,e,2,2,8,NA,NA,NA,NA,NA,NA,0,,-999999,30,67651,1,495,68146,NA,NA,NA,NA,NA,NA,NA,NA,aexppro111,block1,nv audio/e1_24k.wav,NA,NA,NA,NA,NA,NA,NA,NA,NA,NA,NA,NA,NA,NA,NA,NA,NA
nv,12,1,"<?xml version=""1.0""?>\n<Clock xmlns:dt=""urn:schemas-microsoft-com:datatypes""><Description dt:dt=""string"">E-Prime Primary Realtime Clock</Description><StartTime><Timestamp dt:dt=""int"">0</Timestamp><DateUtc dt:dt=""string"">2016-12-23T06:15:25Z</DateUtc></StartTime><FrequencyChanges><FrequencyChange><Frequency dt:dt=""r8"">3579545</Frequency><Timestamp dt:dt=""r8"">68448262832</Timestamp><Current dt:dt=""r8"">0</Current><DateUtc dt:dt=""string"">2016-12-23T06:15:25Z</DateUtc></FrequencyChange></FrequencyChanges></Clock>\n",2016/12/23 14:15,84.839,1,-270520374,12-23-2016,14:15:26,6:15:26,10,i,3,2,9,NA,NA,NA,NA,NA,NA,0,,-999999,31,68689,1,358,69047,NA,NA,NA,NA,NA,NA,NA,NA,aexppro111,block1,nv audio/i1_24k.wav,NA,NA,NA,NA,NA,NA,NA,NA,NA,NA,NA,NA,NA,NA,NA,NA,NA
nv,12,1,"<?xml version=""1.0""?>\n<Clock xmlns:dt=""urn:schemas-microsoft-com:datatypes""><Description dt:dt=""string"">E-Prime Primary Realtime Clock</Description><StartTime><Timestamp dt:dt=""int"">0</Timestamp><DateUtc dt:dt=""string"">2016-12-23T06:15:25Z</DateUtc></StartTime><FrequencyChanges><FrequencyChange><Frequency dt:dt=""r8"">3579545</Frequency><Timestamp dt:dt=""r8"">68448262832</Timestamp><Current dt:dt=""r8"">0</Current><DateUtc dt:dt=""string"">2016-12-23T06:15:25Z</DateUtc></FrequencyChange></FrequencyChanges></Clock>\n",2016/12/23 14:15,84.839,1,-270520374,12-23-2016,14:15:26,6:15:26,11,NA,5,2,10,NA,NA,NA,NA,NA,NA,0,,-999999,30,69584,1,658,70242,NA,NA,NA,NA,NA,NA,NA,NA,aexppro111,block1,nv audio/y1_24k.wav,NA,NA,NA,NA,NA,NA,NA,NA,NA,NA,NA,NA,NA,NA,NA,NA,NA
nv,12,1,"<?xml version=""1.0""?>\n<Clock xmlns:dt=""urn:schemas-microsoft-com:datatypes""><Description dt:dt=""string"">E-Prime Primary Realtime Clock</Description><StartTime><Timestamp dt:dt=""int"">0</Timestamp><DateUtc dt:dt=""string"">2016-12-23T06:15:25Z</DateUtc></StartTime><FrequencyChanges><FrequencyChange><Frequency dt:dt=""r8"">3579545</Frequency><Timestamp dt:dt=""r8"">68448262832</Timestamp><Current dt:dt=""r8"">0</Current><DateUtc dt:dt=""string"">2016-12-23T06:15:25Z</DateUtc></FrequencyChange></FrequencyChanges></Clock>\n",2016/12/23 14:15,84.839,1,-270520374,12-23-2016,14:15:26,6:15:26,12,a,1,3,11,NA,NA,NA,NA,NA,NA,0,,-999999,31,71789,1,997,72786,NA,NA,NA,NA,NA,NA,NA,NA,aexppro111,block1,nv audio/a1_24k.wav,NA,NA,NA,NA,NA,NA,NA,NA,NA,NA,NA,NA,NA,NA,NA,NA,NA
nv,12,1,"<?xml version=""1.0""?>\n<Clock xmlns:dt=""urn:schemas-microsoft-com:datatypes""><Description dt:dt=""string"">E-Prime Primary Realtime Clock</Description><StartTime><Timestamp dt:dt=""int"">0</Timestamp><DateUtc dt:dt=""string"">2016-12-23T06:15:25Z</DateUtc></StartTime><FrequencyChanges><FrequencyChange><Frequency dt:dt=""r8"">3579545</Frequency><Timestamp dt:dt=""r8"">68448262832</Timestamp><Current dt:dt=""r8"">0</Current><DateUtc dt:dt=""string"">2016-12-23T06:15:25Z</DateUtc></FrequencyChange></FrequencyChanges></Clock>\n",2016/12/23 14:15,84.839,1,-270520374,12-23-2016,14:15:26,6:15:26,13,i,5,3,12,NA,NA,NA,NA,NA,NA,0,,-999999,30,73321,1,752,74073,NA,NA,NA,NA,NA,NA,NA,NA,aexppro111,block1,nv audio/y1_24k.wav,NA,NA,NA,NA,NA,NA,NA,NA,NA,NA,NA,NA,NA,NA,NA,NA,NA
nv,12,1,"<?xml version=""1.0""?>\n<Clock xmlns:dt=""urn:schemas-microsoft-com:datatypes""><Description dt:dt=""string"">E-Prime Primary Realtime Clock</Description><StartTime><Timestamp dt:dt=""int"">0</Timestamp><DateUtc dt:dt=""string"">2016-12-23T06:15:25Z</DateUtc></StartTime><FrequencyChanges><FrequencyChange><Frequency dt:dt=""r8"">3579545</Frequency><Timestamp dt:dt=""r8"">68448262832</Timestamp><Current dt:dt=""r8"">0</Current><DateUtc dt:dt=""string"">2016-12-23T06:15:25Z</DateUtc></FrequencyChange></FrequencyChanges></Clock>\n",2016/12/23 14:15,84.839,1,-270520374,12-23-2016,14:15:26,6:15:26,14,i,3,3,13,NA,NA,NA,NA,NA,NA,0,,-999999,31,74618,1,569,75187,NA,NA,NA,NA,NA,NA,NA,NA,aexppro111,block1,nv audio/i1_24k.wav,NA,NA,NA,NA,NA,NA,NA,NA,NA,NA,NA,NA,NA,NA,NA,NA,NA
nv,12,1,"<?xml version=""1.0""?>\n<Clock xmlns:dt=""urn:schemas-microsoft-com:datatypes""><Description dt:dt=""string"">E-Prime Primary Realtime Clock</Description><StartTime><Timestamp dt:dt=""int"">0</Timestamp><DateUtc dt:dt=""string"">2016-12-23T06:15:25Z</DateUtc></StartTime><FrequencyChanges><FrequencyChange><Frequency dt:dt=""r8"">3579545</Frequency><Timestamp dt:dt=""r8"">68448262832</Timestamp><Current dt:dt=""r8"">0</Current><DateUtc dt:dt=""string"">2016-12-23T06:15:25Z</DateUtc></FrequencyChange></FrequencyChanges></Clock>\n",2016/12/23 14:15,84.839,1,-270520374,12-23-2016,14:15:26,6:15:26,15,e,2,3,14,NA,NA,NA,NA,NA,NA,0,,-999999,31,75726,1,1127,76853,NA,NA,NA,NA,NA,NA,NA,NA,aexppro111,block1,nv audio/e1_24k.wav,NA,NA,NA,NA,NA,NA,NA,NA,NA,NA,NA,NA,NA,NA,NA,NA,NA
nv,12,1,"<?xml version=""1.0""?>\n<Clock xmlns:dt=""urn:schemas-microsoft-com:datatypes""><Description dt:dt=""string"">E-Prime Primary Realtime Clock</Description><StartTime><Timestamp dt:dt=""int"">0</Timestamp><DateUtc dt:dt=""string"">2016-12-23T06:15:25Z</DateUtc></StartTime><FrequencyChanges><FrequencyChange><Frequency dt:dt=""r8"">3579545</Frequency><Timestamp dt:dt=""r8"">68448262832</Timestamp><Current dt:dt=""r8"">0</Current><DateUtc dt:dt=""string"">2016-12-23T06:15:25Z</DateUtc></FrequencyChange></FrequencyChanges></Clock>\n",2016/12/23 14:15,84.839,1,-270520374,12-23-2016,14:15:26,6:15:26,16,u,4,3,15,NA,NA,NA,NA,NA,NA,0,,-999999,30,77387,1,326,77713,NA,NA,NA,NA,NA,NA,NA,NA,aexppro111,block1,nv audio/u1_24k.wav,NA,NA,NA,NA,NA,NA,NA,NA,NA,NA,NA,NA,NA,NA,NA,NA,NA
nv,12,1,"<?xml version=""1.0""?>\n<Clock xmlns:dt=""urn:schemas-microsoft-com:datatypes""><Description dt:dt=""string"">E-Prime Primary Realtime Clock</Description><StartTime><Timestamp dt:dt=""int"">0</Timestamp><DateUtc dt:dt=""string"">2016-12-23T06:15:25Z</DateUtc></StartTime><FrequencyChanges><FrequencyChange><Frequency dt:dt=""r8"">3579545</Frequency><Timestamp dt:dt=""r8"">68448262832</Timestamp><Current dt:dt=""r8"">0</Current><DateUtc dt:dt=""string"">2016-12-23T06:15:25Z</DateUtc></FrequencyChange></FrequencyChanges></Clock>\n",2016/12/23 14:15,84.839,1,-270520374,12-23-2016,14:15:26,6:15:26,17,a,1,4,16,NA,NA,NA,NA,NA,NA,0,,-999999,30,78248,1,832,79080,NA,NA,NA,NA,NA,NA,NA,NA,aexppro111,block1,nv audio/a1_24k.wav,NA,NA,NA,NA,NA,NA,NA,NA,NA,NA,NA,NA,NA,NA,NA,NA,NA
nv,12,1,"<?xml version=""1.0""?>\n<Clock xmlns:dt=""urn:schemas-microsoft-com:datatypes""><Description dt:dt=""string"">E-Prime Primary Realtime Clock</Description><StartTime><Timestamp dt:dt=""int"">0</Timestamp><DateUtc dt:dt=""string"">2016-12-23T06:15:25Z</DateUtc></StartTime><FrequencyChanges><FrequencyChange><Frequency dt:dt=""r8"">3579545</Frequency><Timestamp dt:dt=""r8"">68448262832</Timestamp><Current dt:dt=""r8"">0</Current><DateUtc dt:dt=""string"">2016-12-23T06:15:25Z</DateUtc></FrequencyChange></FrequencyChanges></Clock>\n",2016/12/23 14:15,84.839,1,-270520374,12-23-2016,14:15:26,6:15:26,18,i,5,4,17,NA,NA,NA,NA,NA,NA,0,,-999999,42,79627,1,802,80429,NA,NA,NA,NA,NA,NA,NA,NA,aexppro111,block1,nv audio/y1_24k.wav,NA,NA,NA,NA,NA,NA,NA,NA,NA,NA,NA,NA,NA,NA,NA,NA,NA
nv,12,1,"<?xml version=""1.0""?>\n<Clock xmlns:dt=""urn:schemas-microsoft-com:datatypes""><Description dt:dt=""string"">E-Prime Primary Realtime Clock</Description><StartTime><Timestamp dt:dt=""int"">0</Timestamp><DateUtc dt:dt=""string"">2016-12-23T06:15:25Z</DateUtc></StartTime><FrequencyChanges><FrequencyChange><Frequency dt:dt=""r8"">3579545</Frequency><Timestamp dt:dt=""r8"">68448262832</Timestamp><Current dt:dt=""r8"">0</Current><DateUtc dt:dt=""string"">2016-12-23T06:15:25Z</DateUtc></FrequencyChange></FrequencyChanges></Clock>\n",2016/12/23 14:15,84.839,1,-270520374,12-23-2016,14:15:26,6:15:26,19,u,4,4,18,NA,NA,NA,NA,NA,NA,0,,-999999,54,80994,1,448,81442,NA,NA,NA,NA,NA,NA,NA,NA,aexppro111,block1,nv audio/u1_24k.wav,NA,NA,NA,NA,NA,NA,NA,NA,NA,NA,NA,NA,NA,NA,NA,NA,NA
nv,12,1,"<?xml version=""1.0""?>\n<Clock xmlns:dt=""urn:schemas-microsoft-com:datatypes""><Description dt:dt=""string"">E-Prime Primary Realtime Clock</Description><StartTime><Timestamp dt:dt=""int"">0</Timestamp><DateUtc dt:dt=""string"">2016-12-23T06:15:25Z</DateUtc></StartTime><FrequencyChanges><FrequencyChange><Frequency dt:dt=""r8"">3579545</Frequency><Timestamp dt:dt=""r8"">68448262832</Timestamp><Current dt:dt=""r8"">0</Current><DateUtc dt:dt=""string"">2016-12-23T06:15:25Z</DateUtc></FrequencyChange></FrequencyChanges></Clock>\n",2016/12/23 14:15,84.839,1,-270520374,12-23-2016,14:15:26,6:15:26,20,e,2,4,19,NA,NA,NA,NA,NA,NA,0,,-999999,42,81996,1,1082,83078,NA,NA,NA,NA,NA,NA,NA,NA,aexppro111,block1,nv audio/e1_24k.wav,NA,NA,NA,NA,NA,NA,NA,NA,NA,NA,NA,NA,NA,NA,NA,NA,NA
nv,12,1,"<?xml version=""1.0""?>\n<Clock xmlns:dt=""urn:schemas-microsoft-com:datatypes""><Description dt:dt=""string"">E-Prime Primary Realtime Clock</Description><StartTime><Timestamp dt:dt=""int"">0</Timestamp><DateUtc dt:dt=""string"">2016-12-23T06:15:25Z</DateUtc></StartTime><FrequencyChanges><FrequencyChange><Frequency dt:dt=""r8"">3579545</Frequency><Timestamp dt:dt=""r8"">68448262832</Timestamp><Current dt:dt=""r8"">0</Current><DateUtc dt:dt=""string"">2016-12-23T06:15:25Z</DateUtc></FrequencyChange></FrequencyChanges></Clock>\n",2016/12/23 14:15,84.839,1,-270520374,12-23-2016,14:15:26,6:15:26,21,i,3,4,20,NA,NA,NA,NA,NA,NA,0,,-999999,54,83635,1,689,84324,NA,NA,NA,NA,NA,NA,NA,NA,aexppro111,block1,nv audio/i1_24k.wav,NA,NA,NA,NA,NA,NA,NA,NA,NA,NA,NA,NA,NA,NA,NA,NA,NA
nv,12,1,"<?xml version=""1.0""?>\n<Clock xmlns:dt=""urn:schemas-microsoft-com:datatypes""><Description dt:dt=""string"">E-Prime Primary Realtime Clock</Description><StartTime><Timestamp dt:dt=""int"">0</Timestamp><DateUtc dt:dt=""string"">2016-12-23T06:15:25Z</DateUtc></StartTime><FrequencyChanges><FrequencyChange><Frequency dt:dt=""r8"">3579545</Frequency><Timestamp dt:dt=""r8"">68448262832</Timestamp><Current dt:dt=""r8"">0</Current><DateUtc dt:dt=""string"">2016-12-23T06:15:25Z</DateUtc></FrequencyChange></FrequencyChanges></Clock>\n",2016/12/23 14:15,84.839,1,-270520374,12-23-2016,14:15:26,6:15:26,22,e,2,5,21,NA,NA,NA,NA,NA,NA,0,,-999999,42,84872,1,934,85806,NA,NA,NA,NA,NA,NA,NA,NA,aexppro111,block1,nv audio/e1_24k.wav,NA,NA,NA,NA,NA,NA,NA,NA,NA,NA,NA,NA,NA,NA,NA,NA,NA
nv,12,1,"<?xml version=""1.0""?>\n<Clock xmlns:dt=""urn:schemas-microsoft-com:datatypes""><Description dt:dt=""string"">E-Prime Primary Realtime Clock</Description><StartTime><Timestamp dt:dt=""int"">0</Timestamp><DateUtc dt:dt=""string"">2016-12-23T06:15:25Z</DateUtc></StartTime><FrequencyChanges><FrequencyChange><Frequency dt:dt=""r8"">3579545</Frequency><Timestamp dt:dt=""r8"">68448262832</Timestamp><Current dt:dt=""r8"">0</Current><DateUtc dt:dt=""string"">2016-12-23T06:15:25Z</DateUtc></FrequencyChange></FrequencyChanges></Clock>\n",2016/12/23 14:15,84.839,1,-270520374,12-23-2016,14:15:26,6:15:26,23,i,5,5,22,NA,NA,NA,NA,NA,NA,0,,-999999,54,86369,1,827,87196,NA,NA,NA,NA,NA,NA,NA,NA,aexppro111,block1,nv audio/y1_24k.wav,NA,NA,NA,NA,NA,NA,NA,NA,NA,NA,NA,NA,NA,NA,NA,NA,NA
nv,12,1,"<?xml version=""1.0""?>\n<Clock xmlns:dt=""urn:schemas-microsoft-com:datatypes""><Description dt:dt=""string"">E-Prime Primary Realtime Clock</Description><StartTime><Timestamp dt:dt=""int"">0</Timestamp><DateUtc dt:dt=""string"">2016-12-23T06:15:25Z</DateUtc></StartTime><FrequencyChanges><FrequencyChange><Frequency dt:dt=""r8"">3579545</Frequency><Timestamp dt:dt=""r8"">68448262832</Timestamp><Current dt:dt=""r8"">0</Current><DateUtc dt:dt=""string"">2016-12-23T06:15:25Z</DateUtc></FrequencyChange></FrequencyChanges></Clock>\n",2016/12/23 14:15,84.839,1,-270520374,12-23-2016,14:15:26,6:15:26,24,i,3,5,23,NA,NA,NA,NA,NA,NA,0,,-999999,54,87760,1,569,88329,NA,NA,NA,NA,NA,NA,NA,NA,aexppro111,block1,nv audio/i1_24k.wav,NA,NA,NA,NA,NA,NA,NA,NA,NA,NA,NA,NA,NA,NA,NA,NA,NA
nv,12,1,"<?xml version=""1.0""?>\n<Clock xmlns:dt=""urn:schemas-microsoft-com:datatypes""><Description dt:dt=""string"">E-Prime Primary Realtime Clock</Description><StartTime><Timestamp dt:dt=""int"">0</Timestamp><DateUtc dt:dt=""string"">2016-12-23T06:15:25Z</DateUtc></StartTime><FrequencyChanges><FrequencyChange><Frequency dt:dt=""r8"">3579545</Frequency><Timestamp dt:dt=""r8"">68448262832</Timestamp><Current dt:dt=""r8"">0</Current><DateUtc dt:dt=""string"">2016-12-23T06:15:25Z</DateUtc></FrequencyChange></FrequencyChanges></Clock>\n",2016/12/23 14:15,84.839,1,-270520374,12-23-2016,14:15:26,6:15:26,25,u,4,5,24,NA,NA,NA,NA,NA,NA,0,,-999999,30,88868,1,626,89494,NA,NA,NA,NA,NA,NA,NA,NA,aexppro111,block1,nv audio/u1_24k.wav,NA,NA,NA,NA,NA,NA,NA,NA,NA,NA,NA,NA,NA,NA,NA,NA,NA
nv,12,1,"<?xml version=""1.0""?>\n<Clock xmlns:dt=""urn:schemas-microsoft-com:datatypes""><Description dt:dt=""string"">E-Prime Primary Realtime Clock</Description><StartTime><Timestamp dt:dt=""int"">0</Timestamp><DateUtc dt:dt=""string"">2016-12-23T06:15:25Z</DateUtc></StartTime><FrequencyChanges><FrequencyChange><Frequency dt:dt=""r8"">3579545</Frequency><Timestamp dt:dt=""r8"">68448262832</Timestamp><Current dt:dt=""r8"">0</Current><DateUtc dt:dt=""string"">2016-12-23T06:15:25Z</DateUtc></FrequencyChange></FrequencyChanges></Clock>\n",2016/12/23 14:15,84.839,1,-270520374,12-23-2016,14:15:26,6:15:26,26,a,1,5,25,NA,NA,NA,NA,NA,NA,0,,-999999,42,90047,1,1012,91059,NA,NA,NA,NA,NA,NA,NA,NA,aexppro111,block1,nv audio/a1_24k.wav,NA,NA,NA,NA,NA,NA,NA,NA,NA,NA,NA,NA,NA,NA,NA,NA,NA
nv,12,1,"<?xml version=""1.0""?>\n<Clock xmlns:dt=""urn:schemas-microsoft-com:datatypes""><Description dt:dt=""string"">E-Prime Primary Realtime Clock</Description><StartTime><Timestamp dt:dt=""int"">0</Timestamp><DateUtc dt:dt=""string"">2016-12-23T06:15:25Z</DateUtc></StartTime><FrequencyChanges><FrequencyChange><Frequency dt:dt=""r8"">3579545</Frequency><Timestamp dt:dt=""r8"">68448262832</Timestamp><Current dt:dt=""r8"">0</Current><DateUtc dt:dt=""string"">2016-12-23T06:15:25Z</DateUtc></FrequencyChange></FrequencyChanges></Clock>\n",2016/12/23 14:15,84.839,1,-270520374,12-23-2016,14:15:26,6:15:26,27,i,3,6,26,NA,NA,NA,NA,NA,NA,0,,-999999,30,91591,1,1286,92877,NA,NA,NA,NA,NA,NA,NA,NA,aexppro111,block1,nv audio/i1_24k.wav,NA,NA,NA,NA,NA,NA,NA,NA,NA,NA,NA,NA,NA,NA,NA,NA,NA
nv,12,1,"<?xml version=""1.0""?>\n<Clock xmlns:dt=""urn:schemas-microsoft-com:datatypes""><Description dt:dt=""string"">E-Prime Primary Realtime Clock</Description><StartTime><Timestamp dt:dt=""int"">0</Timestamp><DateUtc dt:dt=""string"">2016-12-23T06:15:25Z</DateUtc></StartTime><FrequencyChanges><FrequencyChange><Frequency dt:dt=""r8"">3579545</Frequency><Timestamp dt:dt=""r8"">68448262832</Timestamp><Current dt:dt=""r8"">0</Current><DateUtc dt:dt=""string"">2016-12-23T06:15:25Z</DateUtc></FrequencyChange></FrequencyChanges></Clock>\n",2016/12/23 14:15,84.839,1,-270520374,12-23-2016,14:15:26,6:15:26,28,e,2,6,27,NA,NA,NA,NA,NA,NA,0,,-999999,30,93418,1,696,94114,NA,NA,NA,NA,NA,NA,NA,NA,aexppro111,block1,nv audio/e1_24k.wav,NA,NA,NA,NA,NA,NA,NA,NA,NA,NA,NA,NA,NA,NA,NA,NA,NA
nv,12,1,"<?xml version=""1.0""?>\n<Clock xmlns:dt=""urn:schemas-microsoft-com:datatypes""><Description dt:dt=""string"">E-Prime Primary Realtime Clock</Description><StartTime><Timestamp dt:dt=""int"">0</Timestamp><DateUtc dt:dt=""string"">2016-12-23T06:15:25Z</DateUtc></StartTime><FrequencyChanges><FrequencyChange><Frequency dt:dt=""r8"">3579545</Frequency><Timestamp dt:dt=""r8"">68448262832</Timestamp><Current dt:dt=""r8"">0</Current><DateUtc dt:dt=""string"">2016-12-23T06:15:25Z</DateUtc></FrequencyChange></FrequencyChanges></Clock>\n",2016/12/23 14:15,84.839,1,-270520374,12-23-2016,14:15:26,6:15:26,29,u,4,6,28,NA,NA,NA,NA,NA,NA,0,,-999999,31,94656,1,378,95034,NA,NA,NA,NA,NA,NA,NA,NA,aexppro111,block1,nv audio/u1_24k.wav,NA,NA,NA,NA,NA,NA,NA,NA,NA,NA,NA,NA,NA,NA,NA,NA,NA
nv,12,1,"<?xml version=""1.0""?>\n<Clock xmlns:dt=""urn:schemas-microsoft-com:datatypes""><Description dt:dt=""string"">E-Prime Primary Realtime Clock</Description><StartTime><Timestamp dt:dt=""int"">0</Timestamp><DateUtc dt:dt=""string"">2016-12-23T06:15:25Z</DateUtc></StartTime><FrequencyChanges><FrequencyChange><Frequency dt:dt=""r8"">3579545</Frequency><Timestamp dt:dt=""r8"">68448262832</Timestamp><Current dt:dt=""r8"">0</Current><DateUtc dt:dt=""string"">2016-12-23T06:15:25Z</DateUtc></FrequencyChange></FrequencyChanges></Clock>\n",2016/12/23 14:15,84.839,1,-270520374,12-23-2016,14:15:26,6:15:26,30,a,1,6,29,NA,NA,NA,NA,NA,NA,0,,-999999,30,95575,1,900,96475,NA,NA,NA,NA,NA,NA,NA,NA,aexppro111,block1,nv audio/a1_24k.wav,NA,NA,NA,NA,NA,NA,NA,NA,NA,NA,NA,NA,NA,NA,NA,NA,NA
nv,12,1,"<?xml version=""1.0""?>\n<Clock xmlns:dt=""urn:schemas-microsoft-com:datatypes""><Description dt:dt=""string"">E-Prime Primary Realtime Clock</Description><StartTime><Timestamp dt:dt=""int"">0</Timestamp><DateUtc dt:dt=""string"">2016-12-23T06:15:25Z</DateUtc></StartTime><FrequencyChanges><FrequencyChange><Frequency dt:dt=""r8"">3579545</Frequency><Timestamp dt:dt=""r8"">68448262832</Timestamp><Current dt:dt=""r8"">0</Current><DateUtc dt:dt=""string"">2016-12-23T06:15:25Z</DateUtc></FrequencyChange></FrequencyChanges></Clock>\n",2016/12/23 14:15,84.839,1,-270520374,12-23-2016,14:15:26,6:15:26,31,i,5,6,30,NA,NA,NA,NA,NA,NA,0,,-999999,30,97013,1,1373,98386,NA,NA,NA,NA,NA,NA,NA,NA,aexppro111,block1,nv audio/y1_24k.wav,NA,NA,NA,NA,NA,NA,NA,NA,NA,NA,NA,NA,NA,NA,NA,NA,NA
nv,12,1,"<?xml version=""1.0""?>\n<Clock xmlns:dt=""urn:schemas-microsoft-com:datatypes""><Description dt:dt=""string"">E-Prime Primary Realtime Clock</Description><StartTime><Timestamp dt:dt=""int"">0</Timestamp><DateUtc dt:dt=""string"">2016-12-23T06:15:25Z</DateUtc></StartTime><FrequencyChanges><FrequencyChange><Frequency dt:dt=""r8"">3579545</Frequency><Timestamp dt:dt=""r8"">68448262832</Timestamp><Current dt:dt=""r8"">0</Current><DateUtc dt:dt=""string"">2016-12-23T06:15:25Z</DateUtc></FrequencyChange></FrequencyChanges></Clock>\n",2016/12/23 14:15,84.839,1,-270520374,12-23-2016,14:15:26,6:15:26,32,i,3,7,31,NA,NA,NA,NA,NA,NA,0,,-999999,42,98934,1,1404,100338,NA,NA,NA,NA,NA,NA,NA,NA,aexppro111,block1,nv audio/i1_24k.wav,NA,NA,NA,NA,NA,NA,NA,NA,NA,NA,NA,NA,NA,NA,NA,NA,NA
nv,12,1,"<?xml version=""1.0""?>\n<Clock xmlns:dt=""urn:schemas-microsoft-com:datatypes""><Description dt:dt=""string"">E-Prime Primary Realtime Clock</Description><StartTime><Timestamp dt:dt=""int"">0</Timestamp><DateUtc dt:dt=""string"">2016-12-23T06:15:25Z</DateUtc></StartTime><FrequencyChanges><FrequencyChange><Frequency dt:dt=""r8"">3579545</Frequency><Timestamp dt:dt=""r8"">68448262832</Timestamp><Current dt:dt=""r8"">0</Current><DateUtc dt:dt=""string"">2016-12-23T06:15:25Z</DateUtc></FrequencyChange></FrequencyChanges></Clock>\n",2016/12/23 14:15,84.839,1,-270520374,12-23-2016,14:15:26,6:15:26,33,u,4,7,32,NA,NA,NA,NA,NA,NA,0,,-999999,42,100891,1,356,101247,NA,NA,NA,NA,NA,NA,NA,NA,aexppro111,block1,nv audio/u1_24k.wav,NA,NA,NA,NA,NA,NA,NA,NA,NA,NA,NA,NA,NA,NA,NA,NA,NA
nv,12,1,"<?xml version=""1.0""?>\n<Clock xmlns:dt=""urn:schemas-microsoft-com:datatypes""><Description dt:dt=""string"">E-Prime Primary Realtime Clock</Description><StartTime><Timestamp dt:dt=""int"">0</Timestamp><DateUtc dt:dt=""string"">2016-12-23T06:15:25Z</DateUtc></StartTime><FrequencyChanges><FrequencyChange><Frequency dt:dt=""r8"">3579545</Frequency><Timestamp dt:dt=""r8"">68448262832</Timestamp><Current dt:dt=""r8"">0</Current><DateUtc dt:dt=""string"">2016-12-23T06:15:25Z</DateUtc></FrequencyChange></FrequencyChanges></Clock>\n",2016/12/23 14:15,84.839,1,-270520374,12-23-2016,14:15:26,6:15:26,34,a,1,7,33,NA,NA,NA,NA,NA,NA,0,,-999999,31,101787,1,666,102453,NA,NA,NA,NA,NA,NA,NA,NA,aexppro111,block1,nv audio/a1_24k.wav,NA,NA,NA,NA,NA,NA,NA,NA,NA,NA,NA,NA,NA,NA,NA,NA,NA
nv,12,1,"<?xml version=""1.0""?>\n<Clock xmlns:dt=""urn:schemas-microsoft-com:datatypes""><Description dt:dt=""string"">E-Prime Primary Realtime Clock</Description><StartTime><Timestamp dt:dt=""int"">0</Timestamp><DateUtc dt:dt=""string"">2016-12-23T06:15:25Z</DateUtc></StartTime><FrequencyChanges><FrequencyChange><Frequency dt:dt=""r8"">3579545</Frequency><Timestamp dt:dt=""r8"">68448262832</Timestamp><Current dt:dt=""r8"">0</Current><DateUtc dt:dt=""string"">2016-12-23T06:15:25Z</DateUtc></FrequencyChange></FrequencyChanges></Clock>\n",2016/12/23 14:15,84.839,1,-270520374,12-23-2016,14:15:26,6:15:26,35,e,2,7,34,NA,NA,NA,NA,NA,NA,0,,-999999,30,102989,1,302,103291,NA,NA,NA,NA,NA,NA,NA,NA,aexppro111,block1,nv audio/e1_24k.wav,NA,NA,NA,NA,NA,NA,NA,NA,NA,NA,NA,NA,NA,NA,NA,NA,NA
nv,12,1,"<?xml version=""1.0""?>\n<Clock xmlns:dt=""urn:schemas-microsoft-com:datatypes""><Description dt:dt=""string"">E-Prime Primary Realtime Clock</Description><StartTime><Timestamp dt:dt=""int"">0</Timestamp><DateUtc dt:dt=""string"">2016-12-23T06:15:25Z</DateUtc></StartTime><FrequencyChanges><FrequencyChange><Frequency dt:dt=""r8"">3579545</Frequency><Timestamp dt:dt=""r8"">68448262832</Timestamp><Current dt:dt=""r8"">0</Current><DateUtc dt:dt=""string"">2016-12-23T06:15:25Z</DateUtc></FrequencyChange></FrequencyChanges></Clock>\n",2016/12/23 14:15,84.839,1,-270520374,12-23-2016,14:15:26,6:15:26,36,i,5,7,35,NA,NA,NA,NA,NA,NA,0,,-999999,31,103826,1,334,104160,NA,NA,NA,NA,NA,NA,NA,NA,aexppro111,block1,nv audio/y1_24k.wav,NA,NA,NA,NA,NA,NA,NA,NA,NA,NA,NA,NA,NA,NA,NA,NA,NA
nv,12,1,"<?xml version=""1.0""?>\n<Clock xmlns:dt=""urn:schemas-microsoft-com:datatypes""><Description dt:dt=""string"">E-Prime Primary Realtime Clock</Description><StartTime><Timestamp dt:dt=""int"">0</Timestamp><DateUtc dt:dt=""string"">2016-12-23T06:15:25Z</DateUtc></StartTime><FrequencyChanges><FrequencyChange><Frequency dt:dt=""r8"">3579545</Frequency><Timestamp dt:dt=""r8"">68448262832</Timestamp><Current dt:dt=""r8"">0</Current><DateUtc dt:dt=""string"">2016-12-23T06:15:25Z</DateUtc></FrequencyChange></FrequencyChanges></Clock>\n",2016/12/23 14:15,84.839,1,-270520374,12-23-2016,14:15:26,6:15:26,37,u,4,8,36,NA,NA,NA,NA,NA,NA,0,,-999999,30,104698,1,247,104945,NA,NA,NA,NA,NA,NA,NA,NA,aexppro111,block1,nv audio/u1_24k.wav,NA,NA,NA,NA,NA,NA,NA,NA,NA,NA,NA,NA,NA,NA,NA,NA,NA
nv,12,1,"<?xml version=""1.0""?>\n<Clock xmlns:dt=""urn:schemas-microsoft-com:datatypes""><Description dt:dt=""string"">E-Prime Primary Realtime Clock</Description><StartTime><Timestamp dt:dt=""int"">0</Timestamp><DateUtc dt:dt=""string"">2016-12-23T06:15:25Z</DateUtc></StartTime><FrequencyChanges><FrequencyChange><Frequency dt:dt=""r8"">3579545</Frequency><Timestamp dt:dt=""r8"">68448262832</Timestamp><Current dt:dt=""r8"">0</Current><DateUtc dt:dt=""string"">2016-12-23T06:15:25Z</DateUtc></FrequencyChange></FrequencyChanges></Clock>\n",2016/12/23 14:15,84.839,1,-270520374,12-23-2016,14:15:26,6:15:26,38,a,1,8,37,NA,NA,NA,NA,NA,NA,0,,-999999,54,105511,1,733,106244,NA,NA,NA,NA,NA,NA,NA,NA,aexppro111,block1,nv audio/a1_24k.wav,NA,NA,NA,NA,NA,NA,NA,NA,NA,NA,NA,NA,NA,NA,NA,NA,NA
nv,12,1,"<?xml version=""1.0""?>\n<Clock xmlns:dt=""urn:schemas-microsoft-com:datatypes""><Description dt:dt=""string"">E-Prime Primary Realtime Clock</Description><StartTime><Timestamp dt:dt=""int"">0</Timestamp><DateUtc dt:dt=""string"">2016-12-23T06:15:25Z</DateUtc></StartTime><FrequencyChanges><FrequencyChange><Frequency dt:dt=""r8"">3579545</Frequency><Timestamp dt:dt=""r8"">68448262832</Timestamp><Current dt:dt=""r8"">0</Current><DateUtc dt:dt=""string"">2016-12-23T06:15:25Z</DateUtc></FrequencyChange></FrequencyChanges></Clock>\n",2016/12/23 14:15,84.839,1,-270520374,12-23-2016,14:15:26,6:15:26,39,i,5,8,38,NA,NA,NA,NA,NA,NA,0,,-999999,54,106808,1,387,107195,NA,NA,NA,NA,NA,NA,NA,NA,aexppro111,block1,nv audio/y1_24k.wav,NA,NA,NA,NA,NA,NA,NA,NA,NA,NA,NA,NA,NA,NA,NA,NA,NA
nv,12,1,"<?xml version=""1.0""?>\n<Clock xmlns:dt=""urn:schemas-microsoft-com:datatypes""><Description dt:dt=""string"">E-Prime Primary Realtime Clock</Description><StartTime><Timestamp dt:dt=""int"">0</Timestamp><DateUtc dt:dt=""string"">2016-12-23T06:15:25Z</DateUtc></StartTime><FrequencyChanges><FrequencyChange><Frequency dt:dt=""r8"">3579545</Frequency><Timestamp dt:dt=""r8"">68448262832</Timestamp><Current dt:dt=""r8"">0</Current><DateUtc dt:dt=""string"">2016-12-23T06:15:25Z</DateUtc></FrequencyChange></FrequencyChanges></Clock>\n",2016/12/23 14:15,84.839,1,-270520374,12-23-2016,14:15:26,6:15:26,40,i,3,8,39,NA,NA,NA,NA,NA,NA,0,,-999999,30,107727,1,1359,109086,NA,NA,NA,NA,NA,NA,NA,NA,aexppro111,block1,nv audio/i1_24k.wav,NA,NA,NA,NA,NA,NA,NA,NA,NA,NA,NA,NA,NA,NA,NA,NA,NA
nv,12,1,"<?xml version=""1.0""?>\n<Clock xmlns:dt=""urn:schemas-microsoft-com:datatypes""><Description dt:dt=""string"">E-Prime Primary Realtime Clock</Description><StartTime><Timestamp dt:dt=""int"">0</Timestamp><DateUtc dt:dt=""string"">2016-12-23T06:15:25Z</DateUtc></StartTime><FrequencyChanges><FrequencyChange><Frequency dt:dt=""r8"">3579545</Frequency><Timestamp dt:dt=""r8"">68448262832</Timestamp><Current dt:dt=""r8"">0</Current><DateUtc dt:dt=""string"">2016-12-23T06:15:25Z</DateUtc></FrequencyChange></FrequencyChanges></Clock>\n",2016/12/23 14:15,84.839,1,-270520374,12-23-2016,14:15:26,6:15:26,41,e,2,8,40,NA,NA,NA,NA,NA,NA,0,,-999999,54,109649,1,602,110251,NA,NA,NA,NA,NA,NA,NA,NA,aexppro111,block1,nv audio/e1_24k.wav,NA,NA,NA,NA,NA,NA,NA,NA,NA,NA,NA,NA,NA,NA,NA,NA,NA
nv,12,1,"<?xml version=""1.0""?>\n<Clock xmlns:dt=""urn:schemas-microsoft-com:datatypes""><Description dt:dt=""string"">E-Prime Primary Realtime Clock</Description><StartTime><Timestamp dt:dt=""int"">0</Timestamp><DateUtc dt:dt=""string"">2016-12-23T06:15:25Z</DateUtc></StartTime><FrequencyChanges><FrequencyChange><Frequency dt:dt=""r8"">3579545</Frequency><Timestamp dt:dt=""r8"">68448262832</Timestamp><Current dt:dt=""r8"">0</Current><DateUtc dt:dt=""string"">2016-12-23T06:15:25Z</DateUtc></FrequencyChange></FrequencyChanges></Clock>\n",2016/12/23 14:15,84.839,1,-270520374,12-23-2016,14:15:26,6:15:26,42,i,3,9,41,NA,NA,NA,NA,NA,NA,0,,-999999,30,110792,1,665,111457,NA,NA,NA,NA,NA,NA,NA,NA,aexppro111,block1,nv audio/i1_24k.wav,NA,NA,NA,NA,NA,NA,NA,NA,NA,NA,NA,NA,NA,NA,NA,NA,NA
nv,12,1,"<?xml version=""1.0""?>\n<Clock xmlns:dt=""urn:schemas-microsoft-com:datatypes""><Description dt:dt=""string"">E-Prime Primary Realtime Clock</Description><StartTime><Timestamp dt:dt=""int"">0</Timestamp><DateUtc dt:dt=""string"">2016-12-23T06:15:25Z</DateUtc></StartTime><FrequencyChanges><FrequencyChange><Frequency dt:dt=""r8"">3579545</Frequency><Timestamp dt:dt=""r8"">68448262832</Timestamp><Current dt:dt=""r8"">0</Current><DateUtc dt:dt=""string"">2016-12-23T06:15:25Z</DateUtc></FrequencyChange></FrequencyChanges></Clock>\n",2016/12/23 14:15,84.839,1,-270520374,12-23-2016,14:15:26,6:15:26,43,e,2,9,42,NA,NA,NA,NA,NA,NA,0,,-999999,30,111994,1,392,112386,NA,NA,NA,NA,NA,NA,NA,NA,aexppro111,block1,nv audio/e1_24k.wav,NA,NA,NA,NA,NA,NA,NA,NA,NA,NA,NA,NA,NA,NA,NA,NA,NA
nv,12,1,"<?xml version=""1.0""?>\n<Clock xmlns:dt=""urn:schemas-microsoft-com:datatypes""><Description dt:dt=""string"">E-Prime Primary Realtime Clock</Description><StartTime><Timestamp dt:dt=""int"">0</Timestamp><DateUtc dt:dt=""string"">2016-12-23T06:15:25Z</DateUtc></StartTime><FrequencyChanges><FrequencyChange><Frequency dt:dt=""r8"">3579545</Frequency><Timestamp dt:dt=""r8"">68448262832</Timestamp><Current dt:dt=""r8"">0</Current><DateUtc dt:dt=""string"">2016-12-23T06:15:25Z</DateUtc></FrequencyChange></FrequencyChanges></Clock>\n",2016/12/23 14:15,84.839,1,-270520374,12-23-2016,14:15:26,6:15:26,44,a,1,9,43,NA,NA,NA,NA,NA,NA,0,,-999999,42,112937,1,542,113479,NA,NA,NA,NA,NA,NA,NA,NA,aexppro111,block1,nv audio/a1_24k.wav,NA,NA,NA,NA,NA,NA,NA,NA,NA,NA,NA,NA,NA,NA,NA,NA,NA
nv,12,1,"<?xml version=""1.0""?>\n<Clock xmlns:dt=""urn:schemas-microsoft-com:datatypes""><Description dt:dt=""string"">E-Prime Primary Realtime Clock</Description><StartTime><Timestamp dt:dt=""int"">0</Timestamp><DateUtc dt:dt=""string"">2016-12-23T06:15:25Z</DateUtc></StartTime><FrequencyChanges><FrequencyChange><Frequency dt:dt=""r8"">3579545</Frequency><Timestamp dt:dt=""r8"">68448262832</Timestamp><Current dt:dt=""r8"">0</Current><DateUtc dt:dt=""string"">2016-12-23T06:15:25Z</DateUtc></FrequencyChange></FrequencyChanges></Clock>\n",2016/12/23 14:15,84.839,1,-270520374,12-23-2016,14:15:26,6:15:26,45,i,5,9,44,NA,NA,NA,NA,NA,NA,0,,-999999,31,114022,1,642,114664,NA,NA,NA,NA,NA,NA,NA,NA,aexppro111,block1,nv audio/y1_24k.wav,NA,NA,NA,NA,NA,NA,NA,NA,NA,NA,NA,NA,NA,NA,NA,NA,NA
nv,12,1,"<?xml version=""1.0""?>\n<Clock xmlns:dt=""urn:schemas-microsoft-com:datatypes""><Description dt:dt=""string"">E-Prime Primary Realtime Clock</Description><StartTime><Timestamp dt:dt=""int"">0</Timestamp><DateUtc dt:dt=""string"">2016-12-23T06:15:25Z</DateUtc></StartTime><FrequencyChanges><FrequencyChange><Frequency dt:dt=""r8"">3579545</Frequency><Timestamp dt:dt=""r8"">68448262832</Timestamp><Current dt:dt=""r8"">0</Current><DateUtc dt:dt=""string"">2016-12-23T06:15:25Z</DateUtc></FrequencyChange></FrequencyChanges></Clock>\n",2016/12/23 14:15,84.839,1,-270520374,12-23-2016,14:15:26,6:15:26,46,u,4,9,45,NA,NA,NA,NA,NA,NA,0,,-999999,30,115200,1,355,115555,NA,NA,NA,NA,NA,NA,NA,NA,aexppro111,block1,nv audio/u1_24k.wav,NA,NA,NA,NA,NA,NA,NA,NA,NA,NA,NA,NA,NA,NA,NA,NA,NA
nv,12,1,"<?xml version=""1.0""?>\n<Clock xmlns:dt=""urn:schemas-microsoft-com:datatypes""><Description dt:dt=""string"">E-Prime Primary Realtime Clock</Description><StartTime><Timestamp dt:dt=""int"">0</Timestamp><DateUtc dt:dt=""string"">2016-12-23T06:15:25Z</DateUtc></StartTime><FrequencyChanges><FrequencyChange><Frequency dt:dt=""r8"">3579545</Frequency><Timestamp dt:dt=""r8"">68448262832</Timestamp><Current dt:dt=""r8"">0</Current><DateUtc dt:dt=""string"">2016-12-23T06:15:25Z</DateUtc></FrequencyChange></FrequencyChanges></Clock>\n",2016/12/23 14:15,84.839,1,-270520374,12-23-2016,14:15:26,6:15:26,47,i,3,10,46,NA,NA,NA,NA,NA,NA,0,,-999999,42,116108,1,947,117055,NA,NA,NA,NA,NA,NA,NA,NA,aexppro111,block1,nv audio/i1_24k.wav,NA,NA,NA,NA,NA,NA,NA,NA,NA,NA,NA,NA,NA,NA,NA,NA,NA
nv,12,1,"<?xml version=""1.0""?>\n<Clock xmlns:dt=""urn:schemas-microsoft-com:datatypes""><Description dt:dt=""string"">E-Prime Primary Realtime Clock</Description><StartTime><Timestamp dt:dt=""int"">0</Timestamp><DateUtc dt:dt=""string"">2016-12-23T06:15:25Z</DateUtc></StartTime><FrequencyChanges><FrequencyChange><Frequency dt:dt=""r8"">3579545</Frequency><Timestamp dt:dt=""r8"">68448262832</Timestamp><Current dt:dt=""r8"">0</Current><DateUtc dt:dt=""string"">2016-12-23T06:15:25Z</DateUtc></FrequencyChange></FrequencyChanges></Clock>\n",2016/12/23 14:15,84.839,1,-270520374,12-23-2016,14:15:26,6:15:26,48,e,2,10,47,NA,NA,NA,NA,NA,NA,0,,-999999,54,117617,1,666,118283,NA,NA,NA,NA,NA,NA,NA,NA,aexppro111,block1,nv audio/e1_24k.wav,NA,NA,NA,NA,NA,NA,NA,NA,NA,NA,NA,NA,NA,NA,NA,NA,NA
nv,12,1,"<?xml version=""1.0""?>\n<Clock xmlns:dt=""urn:schemas-microsoft-com:datatypes""><Description dt:dt=""string"">E-Prime Primary Realtime Clock</Description><StartTime><Timestamp dt:dt=""int"">0</Timestamp><DateUtc dt:dt=""string"">2016-12-23T06:15:25Z</DateUtc></StartTime><FrequencyChanges><FrequencyChange><Frequency dt:dt=""r8"">3579545</Frequency><Timestamp dt:dt=""r8"">68448262832</Timestamp><Current dt:dt=""r8"">0</Current><DateUtc dt:dt=""string"">2016-12-23T06:15:25Z</DateUtc></FrequencyChange></FrequencyChanges></Clock>\n",2016/12/23 14:15,84.839,1,-270520374,12-23-2016,14:15:26,6:15:26,49,i,5,10,48,NA,NA,NA,NA,NA,NA,0,,-999999,30,118819,1,343,119162,NA,NA,NA,NA,NA,NA,NA,NA,aexppro111,block1,nv audio/y1_24k.wav,NA,NA,NA,NA,NA,NA,NA,NA,NA,NA,NA,NA,NA,NA,NA,NA,NA
nv,12,1,"<?xml version=""1.0""?>\n<Clock xmlns:dt=""urn:schemas-microsoft-com:datatypes""><Description dt:dt=""string"">E-Prime Primary Realtime Clock</Description><StartTime><Timestamp dt:dt=""int"">0</Timestamp><DateUtc dt:dt=""string"">2016-12-23T06:15:25Z</DateUtc></StartTime><FrequencyChanges><FrequencyChange><Frequency dt:dt=""r8"">3579545</Frequency><Timestamp dt:dt=""r8"">68448262832</Timestamp><Current dt:dt=""r8"">0</Current><DateUtc dt:dt=""string"">2016-12-23T06:15:25Z</DateUtc></FrequencyChange></FrequencyChanges></Clock>\n",2016/12/23 14:15,84.839,1,-270520374,12-23-2016,14:15:26,6:15:26,50,u,4,10,49,NA,NA,NA,NA,NA,NA,0,,-999999,54,119727,1,343,120070,NA,NA,NA,NA,NA,NA,NA,NA,aexppro111,block1,nv audio/u1_24k.wav,NA,NA,NA,NA,NA,NA,NA,NA,NA,NA,NA,NA,NA,NA,NA,NA,NA
nv,12,1,"<?xml version=""1.0""?>\n<Clock xmlns:dt=""urn:schemas-microsoft-com:datatypes""><Description dt:dt=""string"">E-Prime Primary Realtime Clock</Description><StartTime><Timestamp dt:dt=""int"">0</Timestamp><DateUtc dt:dt=""string"">2016-12-23T06:15:25Z</DateUtc></StartTime><FrequencyChanges><FrequencyChange><Frequency dt:dt=""r8"">3579545</Frequency><Timestamp dt:dt=""r8"">68448262832</Timestamp><Current dt:dt=""r8"">0</Current><DateUtc dt:dt=""string"">2016-12-23T06:15:25Z</DateUtc></FrequencyChange></FrequencyChanges></Clock>\n",2016/12/23 14:15,84.839,1,-270520374,12-23-2016,14:15:26,6:15:26,51,a,1,10,50,NA,NA,NA,NA,NA,NA,0,,-999999,54,120634,1,368,121002,NA,NA,NA,NA,NA,NA,NA,NA,aexppro111,block1,nv audio/a1_24k.wav,NA,NA,NA,NA,NA,NA,NA,NA,NA,NA,NA,NA,NA,NA,NA,NA,NA
nv,12,1,"<?xml version=""1.0""?>\n<Clock xmlns:dt=""urn:schemas-microsoft-com:datatypes""><Description dt:dt=""string"">E-Prime Primary Realtime Clock</Description><StartTime><Timestamp dt:dt=""int"">0</Timestamp><DateUtc dt:dt=""string"">2016-12-23T06:15:25Z</DateUtc></StartTime><FrequencyChanges><FrequencyChange><Frequency dt:dt=""r8"">3579545</Frequency><Timestamp dt:dt=""r8"">68448262832</Timestamp><Current dt:dt=""r8"">0</Current><DateUtc dt:dt=""string"">2016-12-23T06:15:25Z</DateUtc></FrequencyChange></FrequencyChanges></Clock>\n",2016/12/23 14:15,84.839,1,-270520374,12-23-2016,14:15:26,6:15:26,52,i,NA,NA,NA,3,1,1,NA,NA,NA,NA,NA,NA,NA,NA,NA,NA,NA,0,,-999999,34,192370,1,1251,193621,aexppro112,block2,NA,nv audio/i1_24k.wav,NA,NA,NA,NA,NA,NA,NA,NA,NA,NA,NA,NA,NA,NA,NA,NA
nv,12,1,"<?xml version=""1.0""?>\n<Clock xmlns:dt=""urn:schemas-microsoft-com:datatypes""><Description dt:dt=""string"">E-Prime Primary Realtime Clock</Description><StartTime><Timestamp dt:dt=""int"">0</Timestamp><DateUtc dt:dt=""string"">2016-12-23T06:15:25Z</DateUtc></StartTime><FrequencyChanges><FrequencyChange><Frequency dt:dt=""r8"">3579545</Frequency><Timestamp dt:dt=""r8"">68448262832</Timestamp><Current dt:dt=""r8"">0</Current><DateUtc dt:dt=""string"">2016-12-23T06:15:25Z</DateUtc></FrequencyChange></FrequencyChanges></Clock>\n",2016/12/23 14:15,84.839,1,-270520374,12-23-2016,14:15:26,6:15:26,53,u,NA,NA,NA,4,1,2,NA,NA,NA,NA,NA,NA,NA,NA,NA,NA,NA,0,,-999999,30,194162,1,737,194899,aexppro112,block2,NA,nv audio/u1_24k.wav,NA,NA,NA,NA,NA,NA,NA,NA,NA,NA,NA,NA,NA,NA,NA,NA
nv,12,1,"<?xml version=""1.0""?>\n<Clock xmlns:dt=""urn:schemas-microsoft-com:datatypes""><Description dt:dt=""string"">E-Prime Primary Realtime Clock</Description><StartTime><Timestamp dt:dt=""int"">0</Timestamp><DateUtc dt:dt=""string"">2016-12-23T06:15:25Z</DateUtc></StartTime><FrequencyChanges><FrequencyChange><Frequency dt:dt=""r8"">3579545</Frequency><Timestamp dt:dt=""r8"">68448262832</Timestamp><Current dt:dt=""r8"">0</Current><DateUtc dt:dt=""string"">2016-12-23T06:15:25Z</DateUtc></FrequencyChange></FrequencyChanges></Clock>\n",2016/12/23 14:15,84.839,1,-270520374,12-23-2016,14:15:26,6:15:26,54,i,NA,NA,NA,5,1,3,NA,NA,NA,NA,NA,NA,NA,NA,NA,NA,NA,0,,-999999,30,195435,1,487,195922,aexppro112,block2,NA,nv audio/y1_24k.wav,NA,NA,NA,NA,NA,NA,NA,NA,NA,NA,NA,NA,NA,NA,NA,NA
nv,12,1,"<?xml version=""1.0""?>\n<Clock xmlns:dt=""urn:schemas-microsoft-com:datatypes""><Description dt:dt=""string"">E-Prime Primary Realtime Clock</Description><StartTime><Timestamp dt:dt=""int"">0</Timestamp><DateUtc dt:dt=""string"">2016-12-23T06:15:25Z</DateUtc></StartTime><FrequencyChanges><FrequencyChange><Frequency dt:dt=""r8"">3579545</Frequency><Timestamp dt:dt=""r8"">68448262832</Timestamp><Current dt:dt=""r8"">0</Current><DateUtc dt:dt=""string"">2016-12-23T06:15:25Z</DateUtc></FrequencyChange></FrequencyChanges></Clock>\n",2016/12/23 14:15,84.839,1,-270520374,12-23-2016,14:15:26,6:15:26,55,a,NA,NA,NA,1,1,4,NA,NA,NA,NA,NA,NA,NA,NA,NA,NA,NA,0,,-999999,31,196461,1,839,197300,aexppro112,block2,NA,nv audio/a1_24k.wav,NA,NA,NA,NA,NA,NA,NA,NA,NA,NA,NA,NA,NA,NA,NA,NA
nv,12,1,"<?xml version=""1.0""?>\n<Clock xmlns:dt=""urn:schemas-microsoft-com:datatypes""><Description dt:dt=""string"">E-Prime Primary Realtime Clock</Description><StartTime><Timestamp dt:dt=""int"">0</Timestamp><DateUtc dt:dt=""string"">2016-12-23T06:15:25Z</DateUtc></StartTime><FrequencyChanges><FrequencyChange><Frequency dt:dt=""r8"">3579545</Frequency><Timestamp dt:dt=""r8"">68448262832</Timestamp><Current dt:dt=""r8"">0</Current><DateUtc dt:dt=""string"">2016-12-23T06:15:25Z</DateUtc></FrequencyChange></FrequencyChanges></Clock>\n",2016/12/23 14:15,84.839,1,-270520374,12-23-2016,14:15:26,6:15:26,56,e,NA,NA,NA,2,1,5,NA,NA,NA,NA,NA,NA,NA,NA,NA,NA,NA,0,,-999999,31,197840,1,238,198078,aexppro112,block2,NA,nv audio/e1_24k.wav,NA,NA,NA,NA,NA,NA,NA,NA,NA,NA,NA,NA,NA,NA,NA,NA
nv,12,1,"<?xml version=""1.0""?>\n<Clock xmlns:dt=""urn:schemas-microsoft-com:datatypes""><Description dt:dt=""string"">E-Prime Primary Realtime Clock</Description><StartTime><Timestamp dt:dt=""int"">0</Timestamp><DateUtc dt:dt=""string"">2016-12-23T06:15:25Z</DateUtc></StartTime><FrequencyChanges><FrequencyChange><Frequency dt:dt=""r8"">3579545</Frequency><Timestamp dt:dt=""r8"">68448262832</Timestamp><Current dt:dt=""r8"">0</Current><DateUtc dt:dt=""string"">2016-12-23T06:15:25Z</DateUtc></FrequencyChange></FrequencyChanges></Clock>\n",2016/12/23 14:15,84.839,1,-270520374,12-23-2016,14:15:26,6:15:26,57,a,NA,NA,NA,1,2,6,NA,NA,NA,NA,NA,NA,NA,NA,NA,NA,NA,0,,-999999,31,198618,1,921,199539,aexppro112,block2,NA,nv audio/a1_24k.wav,NA,NA,NA,NA,NA,NA,NA,NA,NA,NA,NA,NA,NA,NA,NA,NA
nv,12,1,"<?xml version=""1.0""?>\n<Clock xmlns:dt=""urn:schemas-microsoft-com:datatypes""><Description dt:dt=""string"">E-Prime Primary Realtime Clock</Description><StartTime><Timestamp dt:dt=""int"">0</Timestamp><DateUtc dt:dt=""string"">2016-12-23T06:15:25Z</DateUtc></StartTime><FrequencyChanges><FrequencyChange><Frequency dt:dt=""r8"">3579545</Frequency><Timestamp dt:dt=""r8"">68448262832</Timestamp><Current dt:dt=""r8"">0</Current><DateUtc dt:dt=""string"">2016-12-23T06:15:25Z</DateUtc></FrequencyChange></FrequencyChanges></Clock>\n",2016/12/23 14:15,84.839,1,-270520374,12-23-2016,14:15:26,6:15:26,58,i,NA,NA,NA,3,2,7,NA,NA,NA,NA,NA,NA,NA,NA,NA,NA,NA,0,,-999999,54,200103,1,519,200622,aexppro112,block2,NA,nv audio/i1_24k.wav,NA,NA,NA,NA,NA,NA,NA,NA,NA,NA,NA,NA,NA,NA,NA,NA
nv,12,1,"<?xml version=""1.0""?>\n<Clock xmlns:dt=""urn:schemas-microsoft-com:datatypes""><Description dt:dt=""string"">E-Prime Primary Realtime Clock</Description><StartTime><Timestamp dt:dt=""int"">0</Timestamp><DateUtc dt:dt=""string"">2016-12-23T06:15:25Z</DateUtc></StartTime><FrequencyChanges><FrequencyChange><Frequency dt:dt=""r8"">3579545</Frequency><Timestamp dt:dt=""r8"">68448262832</Timestamp><Current dt:dt=""r8"">0</Current><DateUtc dt:dt=""string"">2016-12-23T06:15:25Z</DateUtc></FrequencyChange></FrequencyChanges></Clock>\n",2016/12/23 14:15,84.839,1,-270520374,12-23-2016,14:15:26,6:15:26,59,u,NA,NA,NA,4,2,8,NA,NA,NA,NA,NA,NA,NA,NA,NA,NA,NA,0,,-999999,31,201164,1,358,201522,aexppro112,block2,NA,nv audio/u1_24k.wav,NA,NA,NA,NA,NA,NA,NA,NA,NA,NA,NA,NA,NA,NA,NA,NA
nv,12,1,"<?xml version=""1.0""?>\n<Clock xmlns:dt=""urn:schemas-microsoft-com:datatypes""><Description dt:dt=""string"">E-Prime Primary Realtime Clock</Description><StartTime><Timestamp dt:dt=""int"">0</Timestamp><DateUtc dt:dt=""string"">2016-12-23T06:15:25Z</DateUtc></StartTime><FrequencyChanges><FrequencyChange><Frequency dt:dt=""r8"">3579545</Frequency><Timestamp dt:dt=""r8"">68448262832</Timestamp><Current dt:dt=""r8"">0</Current><DateUtc dt:dt=""string"">2016-12-23T06:15:25Z</DateUtc></FrequencyChange></FrequencyChanges></Clock>\n",2016/12/23 14:15,84.839,1,-270520374,12-23-2016,14:15:26,6:15:26,60,i,NA,NA,NA,5,2,9,NA,NA,NA,NA,NA,NA,NA,NA,NA,NA,NA,0,,-999999,30,202059,1,923,202982,aexppro112,block2,NA,nv audio/y1_24k.wav,NA,NA,NA,NA,NA,NA,NA,NA,NA,NA,NA,NA,NA,NA,NA,NA
nv,12,1,"<?xml version=""1.0""?>\n<Clock xmlns:dt=""urn:schemas-microsoft-com:datatypes""><Description dt:dt=""string"">E-Prime Primary Realtime Clock</Description><StartTime><Timestamp dt:dt=""int"">0</Timestamp><DateUtc dt:dt=""string"">2016-12-23T06:15:25Z</DateUtc></StartTime><FrequencyChanges><FrequencyChange><Frequency dt:dt=""r8"">3579545</Frequency><Timestamp dt:dt=""r8"">68448262832</Timestamp><Current dt:dt=""r8"">0</Current><DateUtc dt:dt=""string"">2016-12-23T06:15:25Z</DateUtc></FrequencyChange></FrequencyChanges></Clock>\n",2016/12/23 14:15,84.839,1,-270520374,12-23-2016,14:15:26,6:15:26,61,e,NA,NA,NA,2,2,10,NA,NA,NA,NA,NA,NA,NA,NA,NA,NA,NA,0,,-999999,30,203521,1,402,203923,aexppro112,block2,NA,nv audio/e1_24k.wav,NA,NA,NA,NA,NA,NA,NA,NA,NA,NA,NA,NA,NA,NA,NA,NA
nv,12,1,"<?xml version=""1.0""?>\n<Clock xmlns:dt=""urn:schemas-microsoft-com:datatypes""><Description dt:dt=""string"">E-Prime Primary Realtime Clock</Description><StartTime><Timestamp dt:dt=""int"">0</Timestamp><DateUtc dt:dt=""string"">2016-12-23T06:15:25Z</DateUtc></StartTime><FrequencyChanges><FrequencyChange><Frequency dt:dt=""r8"">3579545</Frequency><Timestamp dt:dt=""r8"">68448262832</Timestamp><Current dt:dt=""r8"">0</Current><DateUtc dt:dt=""string"">2016-12-23T06:15:25Z</DateUtc></FrequencyChange></FrequencyChanges></Clock>\n",2016/12/23 14:15,84.839,1,-270520374,12-23-2016,14:15:26,6:15:26,62,i,NA,NA,NA,5,3,11,NA,NA,NA,NA,NA,NA,NA,NA,NA,NA,NA,0,,-999999,30,204464,1,419,204883,aexppro112,block2,NA,nv audio/y1_24k.wav,NA,NA,NA,NA,NA,NA,NA,NA,NA,NA,NA,NA,NA,NA,NA,NA
nv,12,1,"<?xml version=""1.0""?>\n<Clock xmlns:dt=""urn:schemas-microsoft-com:datatypes""><Description dt:dt=""string"">E-Prime Primary Realtime Clock</Description><StartTime><Timestamp dt:dt=""int"">0</Timestamp><DateUtc dt:dt=""string"">2016-12-23T06:15:25Z</DateUtc></StartTime><FrequencyChanges><FrequencyChange><Frequency dt:dt=""r8"">3579545</Frequency><Timestamp dt:dt=""r8"">68448262832</Timestamp><Current dt:dt=""r8"">0</Current><DateUtc dt:dt=""string"">2016-12-23T06:15:25Z</DateUtc></FrequencyChange></FrequencyChanges></Clock>\n",2016/12/23 14:15,84.839,1,-270520374,12-23-2016,14:15:26,6:15:26,63,e,NA,NA,NA,2,3,12,NA,NA,NA,NA,NA,NA,NA,NA,NA,NA,NA,0,,-999999,31,205419,1,1039,206458,aexppro112,block2,NA,nv audio/e1_24k.wav,NA,NA,NA,NA,NA,NA,NA,NA,NA,NA,NA,NA,NA,NA,NA,NA
nv,12,1,"<?xml version=""1.0""?>\n<Clock xmlns:dt=""urn:schemas-microsoft-com:datatypes""><Description dt:dt=""string"">E-Prime Primary Realtime Clock</Description><StartTime><Timestamp dt:dt=""int"">0</Timestamp><DateUtc dt:dt=""string"">2016-12-23T06:15:25Z</DateUtc></StartTime><FrequencyChanges><FrequencyChange><Frequency dt:dt=""r8"">3579545</Frequency><Timestamp dt:dt=""r8"">68448262832</Timestamp><Current dt:dt=""r8"">0</Current><DateUtc dt:dt=""string"">2016-12-23T06:15:25Z</DateUtc></FrequencyChange></FrequencyChanges></Clock>\n",2016/12/23 14:15,84.839,1,-270520374,12-23-2016,14:15:26,6:15:26,64,u,NA,NA,NA,4,3,13,NA,NA,NA,NA,NA,NA,NA,NA,NA,NA,NA,0,,-999999,42,207010,1,633,207643,aexppro112,block2,NA,nv audio/u1_24k.wav,NA,NA,NA,NA,NA,NA,NA,NA,NA,NA,NA,NA,NA,NA,NA,NA
nv,12,1,"<?xml version=""1.0""?>\n<Clock xmlns:dt=""urn:schemas-microsoft-com:datatypes""><Description dt:dt=""string"">E-Prime Primary Realtime Clock</Description><StartTime><Timestamp dt:dt=""int"">0</Timestamp><DateUtc dt:dt=""string"">2016-12-23T06:15:25Z</DateUtc></StartTime><FrequencyChanges><FrequencyChange><Frequency dt:dt=""r8"">3579545</Frequency><Timestamp dt:dt=""r8"">68448262832</Timestamp><Current dt:dt=""r8"">0</Current><DateUtc dt:dt=""string"">2016-12-23T06:15:25Z</DateUtc></FrequencyChange></FrequencyChanges></Clock>\n",2016/12/23 14:15,84.839,1,-270520374,12-23-2016,14:15:26,6:15:26,65,a,NA,NA,NA,1,3,14,NA,NA,NA,NA,NA,NA,NA,NA,NA,NA,NA,0,,-999999,31,208177,1,772,208949,aexppro112,block2,NA,nv audio/a1_24k.wav,NA,NA,NA,NA,NA,NA,NA,NA,NA,NA,NA,NA,NA,NA,NA,NA
nv,12,1,"<?xml version=""1.0""?>\n<Clock xmlns:dt=""urn:schemas-microsoft-com:datatypes""><Description dt:dt=""string"">E-Prime Primary Realtime Clock</Description><StartTime><Timestamp dt:dt=""int"">0</Timestamp><DateUtc dt:dt=""string"">2016-12-23T06:15:25Z</DateUtc></StartTime><FrequencyChanges><FrequencyChange><Frequency dt:dt=""r8"">3579545</Frequency><Timestamp dt:dt=""r8"">68448262832</Timestamp><Current dt:dt=""r8"">0</Current><DateUtc dt:dt=""string"">2016-12-23T06:15:25Z</DateUtc></FrequencyChange></FrequencyChanges></Clock>\n",2016/12/23 14:15,84.839,1,-270520374,12-23-2016,14:15:26,6:15:26,66,i,NA,NA,NA,3,3,15,NA,NA,NA,NA,NA,NA,NA,NA,NA,NA,NA,0,,-999999,54,209509,1,648,210157,aexppro112,block2,NA,nv audio/i1_24k.wav,NA,NA,NA,NA,NA,NA,NA,NA,NA,NA,NA,NA,NA,NA,NA,NA
nv,12,1,"<?xml version=""1.0""?>\n<Clock xmlns:dt=""urn:schemas-microsoft-com:datatypes""><Description dt:dt=""string"">E-Prime Primary Realtime Clock</Description><StartTime><Timestamp dt:dt=""int"">0</Timestamp><DateUtc dt:dt=""string"">2016-12-23T06:15:25Z</DateUtc></StartTime><FrequencyChanges><FrequencyChange><Frequency dt:dt=""r8"">3579545</Frequency><Timestamp dt:dt=""r8"">68448262832</Timestamp><Current dt:dt=""r8"">0</Current><DateUtc dt:dt=""string"">2016-12-23T06:15:25Z</DateUtc></FrequencyChange></FrequencyChanges></Clock>\n",2016/12/23 14:15,84.839,1,-270520374,12-23-2016,14:15:26,6:15:26,67,a,NA,NA,NA,1,4,16,NA,NA,NA,NA,NA,NA,NA,NA,NA,NA,NA,0,,-999999,30,210699,1,694,211393,aexppro112,block2,NA,nv audio/a1_24k.wav,NA,NA,NA,NA,NA,NA,NA,NA,NA,NA,NA,NA,NA,NA,NA,NA
nv,12,1,"<?xml version=""1.0""?>\n<Clock xmlns:dt=""urn:schemas-microsoft-com:datatypes""><Description dt:dt=""string"">E-Prime Primary Realtime Clock</Description><StartTime><Timestamp dt:dt=""int"">0</Timestamp><DateUtc dt:dt=""string"">2016-12-23T06:15:25Z</DateUtc></StartTime><FrequencyChanges><FrequencyChange><Frequency dt:dt=""r8"">3579545</Frequency><Timestamp dt:dt=""r8"">68448262832</Timestamp><Current dt:dt=""r8"">0</Current><DateUtc dt:dt=""string"">2016-12-23T06:15:25Z</DateUtc></FrequencyChange></FrequencyChanges></Clock>\n",2016/12/23 14:15,84.839,1,-270520374,12-23-2016,14:15:26,6:15:26,68,u,NA,NA,NA,4,4,17,NA,NA,NA,NA,NA,NA,NA,NA,NA,NA,NA,0,,-999999,30,211925,1,725,212650,aexppro112,block2,NA,nv audio/u1_24k.wav,NA,NA,NA,NA,NA,NA,NA,NA,NA,NA,NA,NA,NA,NA,NA,NA
nv,12,1,"<?xml version=""1.0""?>\n<Clock xmlns:dt=""urn:schemas-microsoft-com:datatypes""><Description dt:dt=""string"">E-Prime Primary Realtime Clock</Description><StartTime><Timestamp dt:dt=""int"">0</Timestamp><DateUtc dt:dt=""string"">2016-12-23T06:15:25Z</DateUtc></StartTime><FrequencyChanges><FrequencyChange><Frequency dt:dt=""r8"">3579545</Frequency><Timestamp dt:dt=""r8"">68448262832</Timestamp><Current dt:dt=""r8"">0</Current><DateUtc dt:dt=""string"">2016-12-23T06:15:25Z</DateUtc></FrequencyChange></FrequencyChanges></Clock>\n",2016/12/23 14:15,84.839,1,-270520374,12-23-2016,14:15:26,6:15:26,69,i,NA,NA,NA,5,4,18,NA,NA,NA,NA,NA,NA,NA,NA,NA,NA,NA,0,,-999999,42,213198,1,341,213539,aexppro112,block2,NA,nv audio/y1_24k.wav,NA,NA,NA,NA,NA,NA,NA,NA,NA,NA,NA,NA,NA,NA,NA,NA
nv,12,1,"<?xml version=""1.0""?>\n<Clock xmlns:dt=""urn:schemas-microsoft-com:datatypes""><Description dt:dt=""string"">E-Prime Primary Realtime Clock</Description><StartTime><Timestamp dt:dt=""int"">0</Timestamp><DateUtc dt:dt=""string"">2016-12-23T06:15:25Z</DateUtc></StartTime><FrequencyChanges><FrequencyChange><Frequency dt:dt=""r8"">3579545</Frequency><Timestamp dt:dt=""r8"">68448262832</Timestamp><Current dt:dt=""r8"">0</Current><DateUtc dt:dt=""string"">2016-12-23T06:15:25Z</DateUtc></FrequencyChange></FrequencyChanges></Clock>\n",2016/12/23 14:15,84.839,1,-270520374,12-23-2016,14:15:26,6:15:26,70,e,NA,NA,NA,2,4,19,NA,NA,NA,NA,NA,NA,NA,NA,NA,NA,NA,0,,-999999,30,214070,1,317,214387,aexppro112,block2,NA,nv audio/e1_24k.wav,NA,NA,NA,NA,NA,NA,NA,NA,NA,NA,NA,NA,NA,NA,NA,NA
nv,12,1,"<?xml version=""1.0""?>\n<Clock xmlns:dt=""urn:schemas-microsoft-com:datatypes""><Description dt:dt=""string"">E-Prime Primary Realtime Clock</Description><StartTime><Timestamp dt:dt=""int"">0</Timestamp><DateUtc dt:dt=""string"">2016-12-23T06:15:25Z</DateUtc></StartTime><FrequencyChanges><FrequencyChange><Frequency dt:dt=""r8"">3579545</Frequency><Timestamp dt:dt=""r8"">68448262832</Timestamp><Current dt:dt=""r8"">0</Current><DateUtc dt:dt=""string"">2016-12-23T06:15:25Z</DateUtc></FrequencyChange></FrequencyChanges></Clock>\n",2016/12/23 14:15,84.839,1,-270520374,12-23-2016,14:15:26,6:15:26,71,i,NA,NA,NA,3,4,20,NA,NA,NA,NA,NA,NA,NA,NA,NA,NA,NA,0,,-999999,30,214919,1,643,215562,aexppro112,block2,NA,nv audio/i1_24k.wav,NA,NA,NA,NA,NA,NA,NA,NA,NA,NA,NA,NA,NA,NA,NA,NA
nv,12,1,"<?xml version=""1.0""?>\n<Clock xmlns:dt=""urn:schemas-microsoft-com:datatypes""><Description dt:dt=""string"">E-Prime Primary Realtime Clock</Description><StartTime><Timestamp dt:dt=""int"">0</Timestamp><DateUtc dt:dt=""string"">2016-12-23T06:15:25Z</DateUtc></StartTime><FrequencyChanges><FrequencyChange><Frequency dt:dt=""r8"">3579545</Frequency><Timestamp dt:dt=""r8"">68448262832</Timestamp><Current dt:dt=""r8"">0</Current><DateUtc dt:dt=""string"">2016-12-23T06:15:25Z</DateUtc></FrequencyChange></FrequencyChanges></Clock>\n",2016/12/23 14:15,84.839,1,-270520374,12-23-2016,14:15:26,6:15:26,72,a,NA,NA,NA,1,5,21,NA,NA,NA,NA,NA,NA,NA,NA,NA,NA,NA,0,,-999999,31,216098,1,670,216768,aexppro112,block2,NA,nv audio/a1_24k.wav,NA,NA,NA,NA,NA,NA,NA,NA,NA,NA,NA,NA,NA,NA,NA,NA
nv,12,1,"<?xml version=""1.0""?>\n<Clock xmlns:dt=""urn:schemas-microsoft-com:datatypes""><Description dt:dt=""string"">E-Prime Primary Realtime Clock</Description><StartTime><Timestamp dt:dt=""int"">0</Timestamp><DateUtc dt:dt=""string"">2016-12-23T06:15:25Z</DateUtc></StartTime><FrequencyChanges><FrequencyChange><Frequency dt:dt=""r8"">3579545</Frequency><Timestamp dt:dt=""r8"">68448262832</Timestamp><Current dt:dt=""r8"">0</Current><DateUtc dt:dt=""string"">2016-12-23T06:15:25Z</DateUtc></FrequencyChange></FrequencyChanges></Clock>\n",2016/12/23 14:15,84.839,1,-270520374,12-23-2016,14:15:26,6:15:26,73,i,NA,NA,NA,3,5,22,NA,NA,NA,NA,NA,NA,NA,NA,NA,NA,NA,0,,-999999,42,217312,1,734,218046,aexppro112,block2,NA,nv audio/i1_24k.wav,NA,NA,NA,NA,NA,NA,NA,NA,NA,NA,NA,NA,NA,NA,NA,NA
nv,12,1,"<?xml version=""1.0""?>\n<Clock xmlns:dt=""urn:schemas-microsoft-com:datatypes""><Description dt:dt=""string"">E-Prime Primary Realtime Clock</Description><StartTime><Timestamp dt:dt=""int"">0</Timestamp><DateUtc dt:dt=""string"">2016-12-23T06:15:25Z</DateUtc></StartTime><FrequencyChanges><FrequencyChange><Frequency dt:dt=""r8"">3579545</Frequency><Timestamp dt:dt=""r8"">68448262832</Timestamp><Current dt:dt=""r8"">0</Current><DateUtc dt:dt=""string"">2016-12-23T06:15:25Z</DateUtc></FrequencyChange></FrequencyChanges></Clock>\n",2016/12/23 14:15,84.839,1,-270520374,12-23-2016,14:15:26,6:15:26,74,i,NA,NA,NA,5,5,23,NA,NA,NA,NA,NA,NA,NA,NA,NA,NA,NA,0,,-999999,31,218585,1,615,219200,aexppro112,block2,NA,nv audio/y1_24k.wav,NA,NA,NA,NA,NA,NA,NA,NA,NA,NA,NA,NA,NA,NA,NA,NA
nv,12,1,"<?xml version=""1.0""?>\n<Clock xmlns:dt=""urn:schemas-microsoft-com:datatypes""><Description dt:dt=""string"">E-Prime Primary Realtime Clock</Description><StartTime><Timestamp dt:dt=""int"">0</Timestamp><DateUtc dt:dt=""string"">2016-12-23T06:15:25Z</DateUtc></StartTime><FrequencyChanges><FrequencyChange><Frequency dt:dt=""r8"">3579545</Frequency><Timestamp dt:dt=""r8"">68448262832</Timestamp><Current dt:dt=""r8"">0</Current><DateUtc dt:dt=""string"">2016-12-23T06:15:25Z</DateUtc></FrequencyChange></FrequencyChanges></Clock>\n",2016/12/23 14:15,84.839,1,-270520374,12-23-2016,14:15:26,6:15:26,75,u,NA,NA,NA,4,5,24,NA,NA,NA,NA,NA,NA,NA,NA,NA,NA,NA,0,,-999999,30,219740,1,625,220365,aexppro112,block2,NA,nv audio/u1_24k.wav,NA,NA,NA,NA,NA,NA,NA,NA,NA,NA,NA,NA,NA,NA,NA,NA
nv,12,1,"<?xml version=""1.0""?>\n<Clock xmlns:dt=""urn:schemas-microsoft-com:datatypes""><Description dt:dt=""string"">E-Prime Primary Realtime Clock</Description><StartTime><Timestamp dt:dt=""int"">0</Timestamp><DateUtc dt:dt=""string"">2016-12-23T06:15:25Z</DateUtc></StartTime><FrequencyChanges><FrequencyChange><Frequency dt:dt=""r8"">3579545</Frequency><Timestamp dt:dt=""r8"">68448262832</Timestamp><Current dt:dt=""r8"">0</Current><DateUtc dt:dt=""string"">2016-12-23T06:15:25Z</DateUtc></FrequencyChange></FrequencyChanges></Clock>\n",2016/12/23 14:15,84.839,1,-270520374,12-23-2016,14:15:26,6:15:26,76,e,NA,NA,NA,2,5,25,NA,NA,NA,NA,NA,NA,NA,NA,NA,NA,NA,0,,-999999,42,220919,1,897,221816,aexppro112,block2,NA,nv audio/e1_24k.wav,NA,NA,NA,NA,NA,NA,NA,NA,NA,NA,NA,NA,NA,NA,NA,NA
nv,12,1,"<?xml version=""1.0""?>\n<Clock xmlns:dt=""urn:schemas-microsoft-com:datatypes""><Description dt:dt=""string"">E-Prime Primary Realtime Clock</Description><StartTime><Timestamp dt:dt=""int"">0</Timestamp><DateUtc dt:dt=""string"">2016-12-23T06:15:25Z</DateUtc></StartTime><FrequencyChanges><FrequencyChange><Frequency dt:dt=""r8"">3579545</Frequency><Timestamp dt:dt=""r8"">68448262832</Timestamp><Current dt:dt=""r8"">0</Current><DateUtc dt:dt=""string"">2016-12-23T06:15:25Z</DateUtc></FrequencyChange></FrequencyChanges></Clock>\n",2016/12/23 14:15,84.839,1,-270520374,12-23-2016,14:15:26,6:15:26,77,e,NA,NA,NA,2,6,26,NA,NA,NA,NA,NA,NA,NA,NA,NA,NA,NA,0,,-999999,31,222357,1,551,222908,aexppro112,block2,NA,nv audio/e1_24k.wav,NA,NA,NA,NA,NA,NA,NA,NA,NA,NA,NA,NA,NA,NA,NA,NA
nv,12,1,"<?xml version=""1.0""?>\n<Clock xmlns:dt=""urn:schemas-microsoft-com:datatypes""><Description dt:dt=""string"">E-Prime Primary Realtime Clock</Description><StartTime><Timestamp dt:dt=""int"">0</Timestamp><DateUtc dt:dt=""string"">2016-12-23T06:15:25Z</DateUtc></StartTime><FrequencyChanges><FrequencyChange><Frequency dt:dt=""r8"">3579545</Frequency><Timestamp dt:dt=""r8"">68448262832</Timestamp><Current dt:dt=""r8"">0</Current><DateUtc dt:dt=""string"">2016-12-23T06:15:25Z</DateUtc></FrequencyChange></FrequencyChanges></Clock>\n",2016/12/23 14:15,84.839,1,-270520374,12-23-2016,14:15:26,6:15:26,78,i,NA,NA,NA,3,6,27,NA,NA,NA,NA,NA,NA,NA,NA,NA,NA,NA,0,,-999999,54,223477,1,587,224064,aexppro112,block2,NA,nv audio/i1_24k.wav,NA,NA,NA,NA,NA,NA,NA,NA,NA,NA,NA,NA,NA,NA,NA,NA
nv,12,1,"<?xml version=""1.0""?>\n<Clock xmlns:dt=""urn:schemas-microsoft-com:datatypes""><Description dt:dt=""string"">E-Prime Primary Realtime Clock</Description><StartTime><Timestamp dt:dt=""int"">0</Timestamp><DateUtc dt:dt=""string"">2016-12-23T06:15:25Z</DateUtc></StartTime><FrequencyChanges><FrequencyChange><Frequency dt:dt=""r8"">3579545</Frequency><Timestamp dt:dt=""r8"">68448262832</Timestamp><Current dt:dt=""r8"">0</Current><DateUtc dt:dt=""string"">2016-12-23T06:15:25Z</DateUtc></FrequencyChange></FrequencyChanges></Clock>\n",2016/12/23 14:15,84.839,1,-270520374,12-23-2016,14:15:26,6:15:26,79,a,NA,NA,NA,1,6,28,NA,NA,NA,NA,NA,NA,NA,NA,NA,NA,NA,0,,-999999,42,224608,1,652,225260,aexppro112,block2,NA,nv audio/a1_24k.wav,NA,NA,NA,NA,NA,NA,NA,NA,NA,NA,NA,NA,NA,NA,NA,NA
nv,12,1,"<?xml version=""1.0""?>\n<Clock xmlns:dt=""urn:schemas-microsoft-com:datatypes""><Description dt:dt=""string"">E-Prime Primary Realtime Clock</Description><StartTime><Timestamp dt:dt=""int"">0</Timestamp><DateUtc dt:dt=""string"">2016-12-23T06:15:25Z</DateUtc></StartTime><FrequencyChanges><FrequencyChange><Frequency dt:dt=""r8"">3579545</Frequency><Timestamp dt:dt=""r8"">68448262832</Timestamp><Current dt:dt=""r8"">0</Current><DateUtc dt:dt=""string"">2016-12-23T06:15:25Z</DateUtc></FrequencyChange></FrequencyChanges></Clock>\n",2016/12/23 14:15,84.839,1,-270520374,12-23-2016,14:15:26,6:15:26,80,u,NA,NA,NA,4,6,29,NA,NA,NA,NA,NA,NA,NA,NA,NA,NA,NA,0,,-999999,42,225810,1,676,226486,aexppro112,block2,NA,nv audio/u1_24k.wav,NA,NA,NA,NA,NA,NA,NA,NA,NA,NA,NA,NA,NA,NA,NA,NA
nv,12,1,"<?xml version=""1.0""?>\n<Clock xmlns:dt=""urn:schemas-microsoft-com:datatypes""><Description dt:dt=""string"">E-Prime Primary Realtime Clock</Description><StartTime><Timestamp dt:dt=""int"">0</Timestamp><DateUtc dt:dt=""string"">2016-12-23T06:15:25Z</DateUtc></StartTime><FrequencyChanges><FrequencyChange><Frequency dt:dt=""r8"">3579545</Frequency><Timestamp dt:dt=""r8"">68448262832</Timestamp><Current dt:dt=""r8"">0</Current><DateUtc dt:dt=""string"">2016-12-23T06:15:25Z</DateUtc></FrequencyChange></FrequencyChanges></Clock>\n",2016/12/23 14:15,84.839,1,-270520374,12-23-2016,14:15:26,6:15:26,81,v,NA,NA,NA,5,6,30,NA,NA,NA,NA,NA,NA,NA,NA,NA,NA,NA,0,,-999999,30,227024,1,391,227415,aexppro112,block2,NA,nv audio/y1_24k.wav,NA,NA,NA,NA,NA,NA,NA,NA,NA,NA,NA,NA,NA,NA,NA,NA
nv,12,1,"<?xml version=""1.0""?>\n<Clock xmlns:dt=""urn:schemas-microsoft-com:datatypes""><Description dt:dt=""string"">E-Prime Primary Realtime Clock</Description><StartTime><Timestamp dt:dt=""int"">0</Timestamp><DateUtc dt:dt=""string"">2016-12-23T06:15:25Z</DateUtc></StartTime><FrequencyChanges><FrequencyChange><Frequency dt:dt=""r8"">3579545</Frequency><Timestamp dt:dt=""r8"">68448262832</Timestamp><Current dt:dt=""r8"">0</Current><DateUtc dt:dt=""string"">2016-12-23T06:15:25Z</DateUtc></FrequencyChange></FrequencyChanges></Clock>\n",2016/12/23 14:15,84.839,1,-270520374,12-23-2016,14:15:26,6:15:26,82,i,NA,NA,NA,5,7,31,NA,NA,NA,NA,NA,NA,NA,NA,NA,NA,NA,0,,-999999,42,227967,1,971,228938,aexppro112,block2,NA,nv audio/y1_24k.wav,NA,NA,NA,NA,NA,NA,NA,NA,NA,NA,NA,NA,NA,NA,NA,NA
nv,12,1,"<?xml version=""1.0""?>\n<Clock xmlns:dt=""urn:schemas-microsoft-com:datatypes""><Description dt:dt=""string"">E-Prime Primary Realtime Clock</Description><StartTime><Timestamp dt:dt=""int"">0</Timestamp><DateUtc dt:dt=""string"">2016-12-23T06:15:25Z</DateUtc></StartTime><FrequencyChanges><FrequencyChange><Frequency dt:dt=""r8"">3579545</Frequency><Timestamp dt:dt=""r8"">68448262832</Timestamp><Current dt:dt=""r8"">0</Current><DateUtc dt:dt=""string"">2016-12-23T06:15:25Z</DateUtc></FrequencyChange></FrequencyChanges></Clock>\n",2016/12/23 14:15,84.839,1,-270520374,12-23-2016,14:15:26,6:15:26,83,e,NA,NA,NA,2,7,32,NA,NA,NA,NA,NA,NA,NA,NA,NA,NA,NA,0,,-999999,30,229476,1,720,230196,aexppro112,block2,NA,nv audio/e1_24k.wav,NA,NA,NA,NA,NA,NA,NA,NA,NA,NA,NA,NA,NA,NA,NA,NA
nv,12,1,"<?xml version=""1.0""?>\n<Clock xmlns:dt=""urn:schemas-microsoft-com:datatypes""><Description dt:dt=""string"">E-Prime Primary Realtime Clock</Description><StartTime><Timestamp dt:dt=""int"">0</Timestamp><DateUtc dt:dt=""string"">2016-12-23T06:15:25Z</DateUtc></StartTime><FrequencyChanges><FrequencyChange><Frequency dt:dt=""r8"">3579545</Frequency><Timestamp dt:dt=""r8"">68448262832</Timestamp><Current dt:dt=""r8"">0</Current><DateUtc dt:dt=""string"">2016-12-23T06:15:25Z</DateUtc></FrequencyChange></FrequencyChanges></Clock>\n",2016/12/23 14:15,84.839,1,-270520374,12-23-2016,14:15:26,6:15:26,84,a,NA,NA,NA,1,7,33,NA,NA,NA,NA,NA,NA,NA,NA,NA,NA,NA,0,,-999999,42,230749,1,347,231096,aexppro112,block2,NA,nv audio/a1_24k.wav,NA,NA,NA,NA,NA,NA,NA,NA,NA,NA,NA,NA,NA,NA,NA,NA
nv,12,1,"<?xml version=""1.0""?>\n<Clock xmlns:dt=""urn:schemas-microsoft-com:datatypes""><Description dt:dt=""string"">E-Prime Primary Realtime Clock</Description><StartTime><Timestamp dt:dt=""int"">0</Timestamp><DateUtc dt:dt=""string"">2016-12-23T06:15:25Z</DateUtc></StartTime><FrequencyChanges><FrequencyChange><Frequency dt:dt=""r8"">3579545</Frequency><Timestamp dt:dt=""r8"">68448262832</Timestamp><Current dt:dt=""r8"">0</Current><DateUtc dt:dt=""string"">2016-12-23T06:15:25Z</DateUtc></FrequencyChange></FrequencyChanges></Clock>\n",2016/12/23 14:15,84.839,1,-270520374,12-23-2016,14:15:26,6:15:26,85,u,NA,NA,NA,4,7,34,NA,NA,NA,NA,NA,NA,NA,NA,NA,NA,NA,0,,-999999,30,231633,1,340,231973,aexppro112,block2,NA,nv audio/u1_24k.wav,NA,NA,NA,NA,NA,NA,NA,NA,NA,NA,NA,NA,NA,NA,NA,NA
nv,12,1,"<?xml version=""1.0""?>\n<Clock xmlns:dt=""urn:schemas-microsoft-com:datatypes""><Description dt:dt=""string"">E-Prime Primary Realtime Clock</Description><StartTime><Timestamp dt:dt=""int"">0</Timestamp><DateUtc dt:dt=""string"">2016-12-23T06:15:25Z</DateUtc></StartTime><FrequencyChanges><FrequencyChange><Frequency dt:dt=""r8"">3579545</Frequency><Timestamp dt:dt=""r8"">68448262832</Timestamp><Current dt:dt=""r8"">0</Current><DateUtc dt:dt=""string"">2016-12-23T06:15:25Z</DateUtc></FrequencyChange></FrequencyChanges></Clock>\n",2016/12/23 14:15,84.839,1,-270520374,12-23-2016,14:15:26,6:15:26,86,i,NA,NA,NA,3,7,35,NA,NA,NA,NA,NA,NA,NA,NA,NA,NA,NA,0,,-999999,42,232529,1,538,233067,aexppro112,block2,NA,nv audio/i1_24k.wav,NA,NA,NA,NA,NA,NA,NA,NA,NA,NA,NA,NA,NA,NA,NA,NA
nv,12,1,"<?xml version=""1.0""?>\n<Clock xmlns:dt=""urn:schemas-microsoft-com:datatypes""><Description dt:dt=""string"">E-Prime Primary Realtime Clock</Description><StartTime><Timestamp dt:dt=""int"">0</Timestamp><DateUtc dt:dt=""string"">2016-12-23T06:15:25Z</DateUtc></StartTime><FrequencyChanges><FrequencyChange><Frequency dt:dt=""r8"">3579545</Frequency><Timestamp dt:dt=""r8"">68448262832</Timestamp><Current dt:dt=""r8"">0</Current><DateUtc dt:dt=""string"">2016-12-23T06:15:25Z</DateUtc></FrequencyChange></FrequencyChanges></Clock>\n",2016/12/23 14:15,84.839,1,-270520374,12-23-2016,14:15:26,6:15:26,87,a,NA,NA,NA,1,8,36,NA,NA,NA,NA,NA,NA,NA,NA,NA,NA,NA,0,,-999999,31,233602,1,671,234273,aexppro112,block2,NA,nv audio/a1_24k.wav,NA,NA,NA,NA,NA,NA,NA,NA,NA,NA,NA,NA,NA,NA,NA,NA
nv,12,1,"<?xml version=""1.0""?>\n<Clock xmlns:dt=""urn:schemas-microsoft-com:datatypes""><Description dt:dt=""string"">E-Prime Primary Realtime Clock</Description><StartTime><Timestamp dt:dt=""int"">0</Timestamp><DateUtc dt:dt=""string"">2016-12-23T06:15:25Z</DateUtc></StartTime><FrequencyChanges><FrequencyChange><Frequency dt:dt=""r8"">3579545</Frequency><Timestamp dt:dt=""r8"">68448262832</Timestamp><Current dt:dt=""r8"">0</Current><DateUtc dt:dt=""string"">2016-12-23T06:15:25Z</DateUtc></FrequencyChange></FrequencyChanges></Clock>\n",2016/12/23 14:15,84.839,1,-270520374,12-23-2016,14:15:26,6:15:26,88,i,NA,NA,NA,3,8,37,NA,NA,NA,NA,NA,NA,NA,NA,NA,NA,NA,0,,-999999,31,234816,1,970,235786,aexppro112,block2,NA,nv audio/i1_24k.wav,NA,NA,NA,NA,NA,NA,NA,NA,NA,NA,NA,NA,NA,NA,NA,NA
nv,12,1,"<?xml version=""1.0""?>\n<Clock xmlns:dt=""urn:schemas-microsoft-com:datatypes""><Description dt:dt=""string"">E-Prime Primary Realtime Clock</Description><StartTime><Timestamp dt:dt=""int"">0</Timestamp><DateUtc dt:dt=""string"">2016-12-23T06:15:25Z</DateUtc></StartTime><FrequencyChanges><FrequencyChange><Frequency dt:dt=""r8"">3579545</Frequency><Timestamp dt:dt=""r8"">68448262832</Timestamp><Current dt:dt=""r8"">0</Current><DateUtc dt:dt=""string"">2016-12-23T06:15:25Z</DateUtc></FrequencyChange></FrequencyChanges></Clock>\n",2016/12/23 14:15,84.839,1,-270520374,12-23-2016,14:15:26,6:15:26,89,u,NA,NA,NA,4,8,38,NA,NA,NA,NA,NA,NA,NA,NA,NA,NA,NA,0,,-999999,30,236324,1,872,237196,aexppro112,block2,NA,nv audio/u1_24k.wav,NA,NA,NA,NA,NA,NA,NA,NA,NA,NA,NA,NA,NA,NA,NA,NA
nv,12,1,"<?xml version=""1.0""?>\n<Clock xmlns:dt=""urn:schemas-microsoft-com:datatypes""><Description dt:dt=""string"">E-Prime Primary Realtime Clock</Description><StartTime><Timestamp dt:dt=""int"">0</Timestamp><DateUtc dt:dt=""string"">2016-12-23T06:15:25Z</DateUtc></StartTime><FrequencyChanges><FrequencyChange><Frequency dt:dt=""r8"">3579545</Frequency><Timestamp dt:dt=""r8"">68448262832</Timestamp><Current dt:dt=""r8"">0</Current><DateUtc dt:dt=""string"">2016-12-23T06:15:25Z</DateUtc></FrequencyChange></FrequencyChanges></Clock>\n",2016/12/23 14:15,84.839,1,-270520374,12-23-2016,14:15:26,6:15:26,90,e,NA,NA,NA,2,8,39,NA,NA,NA,NA,NA,NA,NA,NA,NA,NA,NA,0,,-999999,31,237739,1,561,238300,aexppro112,block2,NA,nv audio/e1_24k.wav,NA,NA,NA,NA,NA,NA,NA,NA,NA,NA,NA,NA,NA,NA,NA,NA
nv,12,1,"<?xml version=""1.0""?>\n<Clock xmlns:dt=""urn:schemas-microsoft-com:datatypes""><Description dt:dt=""string"">E-Prime Primary Realtime Clock</Description><StartTime><Timestamp dt:dt=""int"">0</Timestamp><DateUtc dt:dt=""string"">2016-12-23T06:15:25Z</DateUtc></StartTime><FrequencyChanges><FrequencyChange><Frequency dt:dt=""r8"">3579545</Frequency><Timestamp dt:dt=""r8"">68448262832</Timestamp><Current dt:dt=""r8"">0</Current><DateUtc dt:dt=""string"">2016-12-23T06:15:25Z</DateUtc></FrequencyChange></FrequencyChanges></Clock>\n",2016/12/23 14:15,84.839,1,-270520374,12-23-2016,14:15:26,6:15:26,91,i,NA,NA,NA,5,8,40,NA,NA,NA,NA,NA,NA,NA,NA,NA,NA,NA,0,,-999999,30,238835,1,568,239403,aexppro112,block2,NA,nv audio/y1_24k.wav,NA,NA,NA,NA,NA,NA,NA,NA,NA,NA,NA,NA,NA,NA,NA,NA
nv,12,1,"<?xml version=""1.0""?>\n<Clock xmlns:dt=""urn:schemas-microsoft-com:datatypes""><Description dt:dt=""string"">E-Prime Primary Realtime Clock</Description><StartTime><Timestamp dt:dt=""int"">0</Timestamp><DateUtc dt:dt=""string"">2016-12-23T06:15:25Z</DateUtc></StartTime><FrequencyChanges><FrequencyChange><Frequency dt:dt=""r8"">3579545</Frequency><Timestamp dt:dt=""r8"">68448262832</Timestamp><Current dt:dt=""r8"">0</Current><DateUtc dt:dt=""string"">2016-12-23T06:15:25Z</DateUtc></FrequencyChange></FrequencyChanges></Clock>\n",2016/12/23 14:15,84.839,1,-270520374,12-23-2016,14:15:26,6:15:26,92,u,NA,NA,NA,4,9,41,NA,NA,NA,NA,NA,NA,NA,NA,NA,NA,NA,0,,-999999,30,239943,1,645,240588,aexppro112,block2,NA,nv audio/u1_24k.wav,NA,NA,NA,NA,NA,NA,NA,NA,NA,NA,NA,NA,NA,NA,NA,NA
nv,12,1,"<?xml version=""1.0""?>\n<Clock xmlns:dt=""urn:schemas-microsoft-com:datatypes""><Description dt:dt=""string"">E-Prime Primary Realtime Clock</Description><StartTime><Timestamp dt:dt=""int"">0</Timestamp><DateUtc dt:dt=""string"">2016-12-23T06:15:25Z</DateUtc></StartTime><FrequencyChanges><FrequencyChange><Frequency dt:dt=""r8"">3579545</Frequency><Timestamp dt:dt=""r8"">68448262832</Timestamp><Current dt:dt=""r8"">0</Current><DateUtc dt:dt=""string"">2016-12-23T06:15:25Z</DateUtc></FrequencyChange></FrequencyChanges></Clock>\n",2016/12/23 14:15,84.839,1,-270520374,12-23-2016,14:15:26,6:15:26,93,i,NA,NA,NA,3,9,42,NA,NA,NA,NA,NA,NA,NA,NA,NA,NA,NA,0,,-999999,31,241122,1,611,241733,aexppro112,block2,NA,nv audio/i1_24k.wav,NA,NA,NA,NA,NA,NA,NA,NA,NA,NA,NA,NA,NA,NA,NA,NA
nv,12,1,"<?xml version=""1.0""?>\n<Clock xmlns:dt=""urn:schemas-microsoft-com:datatypes""><Description dt:dt=""string"">E-Prime Primary Realtime Clock</Description><StartTime><Timestamp dt:dt=""int"">0</Timestamp><DateUtc dt:dt=""string"">2016-12-23T06:15:25Z</DateUtc></StartTime><FrequencyChanges><FrequencyChange><Frequency dt:dt=""r8"">3579545</Frequency><Timestamp dt:dt=""r8"">68448262832</Timestamp><Current dt:dt=""r8"">0</Current><DateUtc dt:dt=""string"">2016-12-23T06:15:25Z</DateUtc></FrequencyChange></FrequencyChanges></Clock>\n",2016/12/23 14:15,84.839,1,-270520374,12-23-2016,14:15:26,6:15:26,94,v,NA,NA,NA,5,9,43,NA,NA,NA,NA,NA,NA,NA,NA,NA,NA,NA,0,,-999999,54,242289,1,987,243276,aexppro112,block2,NA,nv audio/y1_24k.wav,NA,NA,NA,NA,NA,NA,NA,NA,NA,NA,NA,NA,NA,NA,NA,NA
nv,12,1,"<?xml version=""1.0""?>\n<Clock xmlns:dt=""urn:schemas-microsoft-com:datatypes""><Description dt:dt=""string"">E-Prime Primary Realtime Clock</Description><StartTime><Timestamp dt:dt=""int"">0</Timestamp><DateUtc dt:dt=""string"">2016-12-23T06:15:25Z</DateUtc></StartTime><FrequencyChanges><FrequencyChange><Frequency dt:dt=""r8"">3579545</Frequency><Timestamp dt:dt=""r8"">68448262832</Timestamp><Current dt:dt=""r8"">0</Current><DateUtc dt:dt=""string"">2016-12-23T06:15:25Z</DateUtc></FrequencyChange></FrequencyChanges></Clock>\n",2016/12/23 14:15,84.839,1,-270520374,12-23-2016,14:15:26,6:15:26,95,e,NA,NA,NA,2,9,44,NA,NA,NA,NA,NA,NA,NA,NA,NA,NA,NA,0,,-999999,30,243809,1,816,244625,aexppro112,block2,NA,nv audio/e1_24k.wav,NA,NA,NA,NA,NA,NA,NA,NA,NA,NA,NA,NA,NA,NA,NA,NA
nv,12,1,"<?xml version=""1.0""?>\n<Clock xmlns:dt=""urn:schemas-microsoft-com:datatypes""><Description dt:dt=""string"">E-Prime Primary Realtime Clock</Description><StartTime><Timestamp dt:dt=""int"">0</Timestamp><DateUtc dt:dt=""string"">2016-12-23T06:15:25Z</DateUtc></StartTime><FrequencyChanges><FrequencyChange><Frequency dt:dt=""r8"">3579545</Frequency><Timestamp dt:dt=""r8"">68448262832</Timestamp><Current dt:dt=""r8"">0</Current><DateUtc dt:dt=""string"">2016-12-23T06:15:25Z</DateUtc></FrequencyChange></FrequencyChanges></Clock>\n",2016/12/23 14:15,84.839,1,-270520374,12-23-2016,14:15:26,6:15:26,96,a,NA,NA,NA,1,9,45,NA,NA,NA,NA,NA,NA,NA,NA,NA,NA,NA,0,,-999999,31,245165,1,286,245451,aexppro112,block2,NA,nv audio/a1_24k.wav,NA,NA,NA,NA,NA,NA,NA,NA,NA,NA,NA,NA,NA,NA,NA,NA
nv,12,1,"<?xml version=""1.0""?>\n<Clock xmlns:dt=""urn:schemas-microsoft-com:datatypes""><Description dt:dt=""string"">E-Prime Primary Realtime Clock</Description><StartTime><Timestamp dt:dt=""int"">0</Timestamp><DateUtc dt:dt=""string"">2016-12-23T06:15:25Z</DateUtc></StartTime><FrequencyChanges><FrequencyChange><Frequency dt:dt=""r8"">3579545</Frequency><Timestamp dt:dt=""r8"">68448262832</Timestamp><Current dt:dt=""r8"">0</Current><DateUtc dt:dt=""string"">2016-12-23T06:15:25Z</DateUtc></FrequencyChange></FrequencyChanges></Clock>\n",2016/12/23 14:15,84.839,1,-270520374,12-23-2016,14:15:26,6:15:26,97,a,NA,NA,NA,1,10,46,NA,NA,NA,NA,NA,NA,NA,NA,NA,NA,NA,0,,-999999,31,245990,1,769,246759,aexppro112,block2,NA,nv audio/a1_24k.wav,NA,NA,NA,NA,NA,NA,NA,NA,NA,NA,NA,NA,NA,NA,NA,NA
nv,12,1,"<?xml version=""1.0""?>\n<Clock xmlns:dt=""urn:schemas-microsoft-com:datatypes""><Description dt:dt=""string"">E-Prime Primary Realtime Clock</Description><StartTime><Timestamp dt:dt=""int"">0</Timestamp><DateUtc dt:dt=""string"">2016-12-23T06:15:25Z</DateUtc></StartTime><FrequencyChanges><FrequencyChange><Frequency dt:dt=""r8"">3579545</Frequency><Timestamp dt:dt=""r8"">68448262832</Timestamp><Current dt:dt=""r8"">0</Current><DateUtc dt:dt=""string"">2016-12-23T06:15:25Z</DateUtc></FrequencyChange></FrequencyChanges></Clock>\n",2016/12/23 14:15,84.839,1,-270520374,12-23-2016,14:15:26,6:15:26,98,i,NA,NA,NA,5,10,47,NA,NA,NA,NA,NA,NA,NA,NA,NA,NA,NA,0,,-999999,42,247310,1,655,247965,aexppro112,block2,NA,nv audio/y1_24k.wav,NA,NA,NA,NA,NA,NA,NA,NA,NA,NA,NA,NA,NA,NA,NA,NA
nv,12,1,"<?xml version=""1.0""?>\n<Clock xmlns:dt=""urn:schemas-microsoft-com:datatypes""><Description dt:dt=""string"">E-Prime Primary Realtime Clock</Description><StartTime><Timestamp dt:dt=""int"">0</Timestamp><DateUtc dt:dt=""string"">2016-12-23T06:15:25Z</DateUtc></StartTime><FrequencyChanges><FrequencyChange><Frequency dt:dt=""r8"">3579545</Frequency><Timestamp dt:dt=""r8"">68448262832</Timestamp><Current dt:dt=""r8"">0</Current><DateUtc dt:dt=""string"">2016-12-23T06:15:25Z</DateUtc></FrequencyChange></FrequencyChanges></Clock>\n",2016/12/23 14:15,84.839,1,-270520374,12-23-2016,14:15:26,6:15:26,99,u,NA,NA,NA,4,10,48,NA,NA,NA,NA,NA,NA,NA,NA,NA,NA,NA,0,,-999999,54,248524,1,975,249499,aexppro112,block2,NA,nv audio/u1_24k.wav,NA,NA,NA,NA,NA,NA,NA,NA,NA,NA,NA,NA,NA,NA,NA,NA
nv,12,1,"<?xml version=""1.0""?>\n<Clock xmlns:dt=""urn:schemas-microsoft-com:datatypes""><Description dt:dt=""string"">E-Prime Primary Realtime Clock</Description><StartTime><Timestamp dt:dt=""int"">0</Timestamp><DateUtc dt:dt=""string"">2016-12-23T06:15:25Z</DateUtc></StartTime><FrequencyChanges><FrequencyChange><Frequency dt:dt=""r8"">3579545</Frequency><Timestamp dt:dt=""r8"">68448262832</Timestamp><Current dt:dt=""r8"">0</Current><DateUtc dt:dt=""string"">2016-12-23T06:15:25Z</DateUtc></FrequencyChange></FrequencyChanges></Clock>\n",2016/12/23 14:15,84.839,1,-270520374,12-23-2016,14:15:26,6:15:26,100,i,NA,NA,NA,3,10,49,NA,NA,NA,NA,NA,NA,NA,NA,NA,NA,NA,0,,-999999,43,250045,1,1037,251082,aexppro112,block2,NA,nv audio/i1_24k.wav,NA,NA,NA,NA,NA,NA,NA,NA,NA,NA,NA,NA,NA,NA,NA,NA
nv,12,1,"<?xml version=""1.0""?>\n<Clock xmlns:dt=""urn:schemas-microsoft-com:datatypes""><Description dt:dt=""string"">E-Prime Primary Realtime Clock</Description><StartTime><Timestamp dt:dt=""int"">0</Timestamp><DateUtc dt:dt=""string"">2016-12-23T06:15:25Z</DateUtc></StartTime><FrequencyChanges><FrequencyChange><Frequency dt:dt=""r8"">3579545</Frequency><Timestamp dt:dt=""r8"">68448262832</Timestamp><Current dt:dt=""r8"">0</Current><DateUtc dt:dt=""string"">2016-12-23T06:15:25Z</DateUtc></FrequencyChange></FrequencyChanges></Clock>\n",2016/12/23 14:15,84.839,1,-270520374,12-23-2016,14:15:26,6:15:26,101,e,NA,NA,NA,2,10,50,NA,NA,NA,NA,NA,NA,NA,NA,NA,NA,NA,0,,-999999,54,251648,1,916,252564,aexppro112,block2,NA,nv audio/e1_24k.wav,NA,NA,NA,NA,NA,NA,NA,NA,NA,NA,NA,NA,NA,NA,NA,NA
