ExperimentName,Subject,Session,Clock.Information,Clock.StartTimeOfDay,Display.RefreshRate,Group,RandomSeed,SessionDate,SessionTime,SessionTimeUtc,Block,answer1[Block],block1,block1.Cycle,block1.Sample,block2,block2.Cycle,block2.Sample,lx,lx.Cycle,lx.Sample,panel1111.ACC,panel1111.CRESP,panel1111.DurationError,panel1111.OnsetDelay,panel1111.OnsetTime,panel1111.RESP,panel1111.RT,panel1111.RTTime,panel1121.ACC,panel1121.CRESP,panel1121.DurationError,panel1121.OnsetDelay,panel1121.OnsetTime,panel1121.RESP,panel1121.RT,panel1121.RTTime,Procedure[Block],Running[Block],sound111,sound112,Trial,answer1[Trial],lxlist,lxlist.Cycle,lxlist.Sample,lxpanel1.ACC,lxpanel1.CRESP,lxpanel1.DurationError,lxpanel1.OnsetDelay,lxpanel1.OnsetTime,lxpanel1.RESP,lxpanel1.RT,lxpanel1.RTTime,lxsound,Procedure[Trial],Running[Trial]
nv,13,1,"<?xml version=""1.0""?>\n<Clock xmlns:dt=""urn:schemas-microsoft-com:datatypes""><Description dt:dt=""string"">E-Prime Primary Realtime Clock</Description><StartTime><Timestamp dt:dt=""int"">0</Timestamp><DateUtc dt:dt=""string"">2016-12-23T06:19:22Z</DateUtc></StartTime><FrequencyChanges><FrequencyChange><Frequency dt:dt=""r8"">3579545</Frequency><Timestamp dt:dt=""r8"">69569634487</Timestamp><Current dt:dt=""r8"">0</Current><DateUtc dt:dt=""string"">2016-12-23T06:19:22Z</DateUtc></FrequencyChange></FrequencyChanges></Clock>\n",2016-12-23 14:19,84.838,1,850841515,12-23-2016,14:19:22,6:19:22,1,,,,,,,,1,1,1,,,,,,,,,,,,,,,,,lxProc,lx,,,1,u,4,1,1,0,,-999999,124,22062,1,1055,23117,nv audio/u1_24k.wav,lxpro1,lxlist
nv,13,1,"<?xml version=""1.0""?>\n<Clock xmlns:dt=""urn:schemas-microsoft-com:datatypes""><Description dt:dt=""string"">E-Prime Primary Realtime Clock</Description><StartTime><Timestamp dt:dt=""int"">0</Timestamp><DateUtc dt:dt=""string"">2016-12-23T06:19:22Z</DateUtc></StartTime><FrequencyChanges><FrequencyChange><Frequency dt:dt=""r8"">3579545</Frequency><Timestamp dt:dt=""r8"">69569634487</Timestamp><Current dt:dt=""r8"">0</Current><DateUtc dt:dt=""string"">2016-12-23T06:19:22Z</DateUtc></FrequencyChange></FrequencyChanges></Clock>\n",2016-12-23 14:19,84.838,1,850841515,12-23-2016,14:19:22,6:19:22,1,,,,,,,,1,1,1,,,,,,,,,,,,,,,,,lxProc,lx,,,2,a,1,1,2,0,,-999999,43,23665,1,1076,24741,nv audio/a1_24k.wav,lxpro1,lxlist
nv,13,1,"<?xml version=""1.0""?>\n<Clock xmlns:dt=""urn:schemas-microsoft-com:datatypes""><Description dt:dt=""string"">E-Prime Primary Realtime Clock</Description><StartTime><Timestamp dt:dt=""int"">0</Timestamp><DateUtc dt:dt=""string"">2016-12-23T06:19:22Z</DateUtc></StartTime><FrequencyChanges><FrequencyChange><Frequency dt:dt=""r8"">3579545</Frequency><Timestamp dt:dt=""r8"">69569634487</Timestamp><Current dt:dt=""r8"">0</Current><DateUtc dt:dt=""string"">2016-12-23T06:19:22Z</DateUtc></FrequencyChange></FrequencyChanges></Clock>\n",2016-12-23 14:19,84.838,1,850841515,12-23-2016,14:19:22,6:19:22,1,,,,,,,,1,1,1,,,,,,,,,,,,,,,,,lxProc,lx,,,3,i,3,1,3,0,,-999999,42,25291,1,739,26030,nv audio/i1_24k.wav,lxpro1,lxlist
nv,13,1,"<?xml version=""1.0""?>\n<Clock xmlns:dt=""urn:schemas-microsoft-com:datatypes""><Description dt:dt=""string"">E-Prime Primary Realtime Clock</Description><StartTime><Timestamp dt:dt=""int"">0</Timestamp><DateUtc dt:dt=""string"">2016-12-23T06:19:22Z</DateUtc></StartTime><FrequencyChanges><FrequencyChange><Frequency dt:dt=""r8"">3579545</Frequency><Timestamp dt:dt=""r8"">69569634487</Timestamp><Current dt:dt=""r8"">0</Current><DateUtc dt:dt=""string"">2016-12-23T06:19:22Z</DateUtc></FrequencyChange></FrequencyChanges></Clock>\n",2016-12-23 14:19,84.838,1,850841515,12-23-2016,14:19:22,6:19:22,1,,,,,,,,1,1,1,,,,,,,,,,,,,,,,,lxProc,lx,,,4,u,5,1,4,0,,-999999,54,26588,1,1910,28498,nv audio/y1_24k.wav,lxpro1,lxlist
nv,13,1,"<?xml version=""1.0""?>\n<Clock xmlns:dt=""urn:schemas-microsoft-com:datatypes""><Description dt:dt=""string"">E-Prime Primary Realtime Clock</Description><StartTime><Timestamp dt:dt=""int"">0</Timestamp><DateUtc dt:dt=""string"">2016-12-23T06:19:22Z</DateUtc></StartTime><FrequencyChanges><FrequencyChange><Frequency dt:dt=""r8"">3579545</Frequency><Timestamp dt:dt=""r8"">69569634487</Timestamp><Current dt:dt=""r8"">0</Current><DateUtc dt:dt=""string"">2016-12-23T06:19:22Z</DateUtc></FrequencyChange></FrequencyChanges></Clock>\n",2016-12-23 14:19,84.838,1,850841515,12-23-2016,14:19:22,6:19:22,1,,,,,,,,1,1,1,,,,,,,,,,,,,,,,,lxProc,lx,,,5,e,2,1,5,0,,-999999,42,29051,1,803,29854,nv audio/e1_24k.wav,lxpro1,lxlist
nv,13,1,"<?xml version=""1.0""?>\n<Clock xmlns:dt=""urn:schemas-microsoft-com:datatypes""><Description dt:dt=""string"">E-Prime Primary Realtime Clock</Description><StartTime><Timestamp dt:dt=""int"">0</Timestamp><DateUtc dt:dt=""string"">2016-12-23T06:19:22Z</DateUtc></StartTime><FrequencyChanges><FrequencyChange><Frequency dt:dt=""r8"">3579545</Frequency><Timestamp dt:dt=""r8"">69569634487</Timestamp><Current dt:dt=""r8"">0</Current><DateUtc dt:dt=""string"">2016-12-23T06:19:22Z</DateUtc></FrequencyChange></FrequencyChanges></Clock>\n",2016-12-23 14:19,84.838,1,850841515,12-23-2016,14:19:22,6:19:22,1,,,,,,,,1,1,1,,,,,,,,,,,,,,,,,lxProc,lx,,,6,e,2,2,6,0,,-999999,65,30430,1,1176,31606,nv audio/e1_24k.wav,lxpro1,lxlist
nv,13,1,"<?xml version=""1.0""?>\n<Clock xmlns:dt=""urn:schemas-microsoft-com:datatypes""><Description dt:dt=""string"">E-Prime Primary Realtime Clock</Description><StartTime><Timestamp dt:dt=""int"">0</Timestamp><DateUtc dt:dt=""string"">2016-12-23T06:19:22Z</DateUtc></StartTime><FrequencyChanges><FrequencyChange><Frequency dt:dt=""r8"">3579545</Frequency><Timestamp dt:dt=""r8"">69569634487</Timestamp><Current dt:dt=""r8"">0</Current><DateUtc dt:dt=""string"">2016-12-23T06:19:22Z</DateUtc></FrequencyChange></FrequencyChanges></Clock>\n",2016-12-23 14:19,84.838,1,850841515,12-23-2016,14:19:22,6:19:22,1,,,,,,,,1,1,1,,,,,,,,,,,,,,,,,lxProc,lx,,,7,v,5,2,7,0,,-999999,42,32151,1,818,32969,nv audio/y1_24k.wav,lxpro1,lxlist
nv,13,1,"<?xml version=""1.0""?>\n<Clock xmlns:dt=""urn:schemas-microsoft-com:datatypes""><Description dt:dt=""string"">E-Prime Primary Realtime Clock</Description><StartTime><Timestamp dt:dt=""int"">0</Timestamp><DateUtc dt:dt=""string"">2016-12-23T06:19:22Z</DateUtc></StartTime><FrequencyChanges><FrequencyChange><Frequency dt:dt=""r8"">3579545</Frequency><Timestamp dt:dt=""r8"">69569634487</Timestamp><Current dt:dt=""r8"">0</Current><DateUtc dt:dt=""string"">2016-12-23T06:19:22Z</DateUtc></FrequencyChange></FrequencyChanges></Clock>\n",2016-12-23 14:19,84.838,1,850841515,12-23-2016,14:19:22,6:19:22,1,,,,,,,,1,1,1,,,,,,,,,,,,,,,,,lxProc,lx,,,8,i,3,2,8,0,,-999999,66,33542,1,715,34257,nv audio/i1_24k.wav,lxpro1,lxlist
nv,13,1,"<?xml version=""1.0""?>\n<Clock xmlns:dt=""urn:schemas-microsoft-com:datatypes""><Description dt:dt=""string"">E-Prime Primary Realtime Clock</Description><StartTime><Timestamp dt:dt=""int"">0</Timestamp><DateUtc dt:dt=""string"">2016-12-23T06:19:22Z</DateUtc></StartTime><FrequencyChanges><FrequencyChange><Frequency dt:dt=""r8"">3579545</Frequency><Timestamp dt:dt=""r8"">69569634487</Timestamp><Current dt:dt=""r8"">0</Current><DateUtc dt:dt=""string"">2016-12-23T06:19:22Z</DateUtc></FrequencyChange></FrequencyChanges></Clock>\n",2016-12-23 14:19,84.838,1,850841515,12-23-2016,14:19:22,6:19:22,1,,,,,,,,1,1,1,,,,,,,,,,,,,,,,,lxProc,lx,,,9,u,4,2,9,0,,-999999,42,34803,1,518,35321,nv audio/u1_24k.wav,lxpro1,lxlist
nv,13,1,"<?xml version=""1.0""?>\n<Clock xmlns:dt=""urn:schemas-microsoft-com:datatypes""><Description dt:dt=""string"">E-Prime Primary Realtime Clock</Description><StartTime><Timestamp dt:dt=""int"">0</Timestamp><DateUtc dt:dt=""string"">2016-12-23T06:19:22Z</DateUtc></StartTime><FrequencyChanges><FrequencyChange><Frequency dt:dt=""r8"">3579545</Frequency><Timestamp dt:dt=""r8"">69569634487</Timestamp><Current dt:dt=""r8"">0</Current><DateUtc dt:dt=""string"">2016-12-23T06:19:22Z</DateUtc></FrequencyChange></FrequencyChanges></Clock>\n",2016-12-23 14:19,84.838,1,850841515,12-23-2016,14:19:22,6:19:22,1,,,,,,,,1,1,1,,,,,,,,,,,,,,,,,lxProc,lx,,,10,a,1,2,10,0,,-999999,66,35900,1,962,36862,nv audio/a1_24k.wav,lxpro1,lxlist
nv,13,1,"<?xml version=""1.0""?>\n<Clock xmlns:dt=""urn:schemas-microsoft-com:datatypes""><Description dt:dt=""string"">E-Prime Primary Realtime Clock</Description><StartTime><Timestamp dt:dt=""int"">0</Timestamp><DateUtc dt:dt=""string"">2016-12-23T06:19:22Z</DateUtc></StartTime><FrequencyChanges><FrequencyChange><Frequency dt:dt=""r8"">3579545</Frequency><Timestamp dt:dt=""r8"">69569634487</Timestamp><Current dt:dt=""r8"">0</Current><DateUtc dt:dt=""string"">2016-12-23T06:19:22Z</DateUtc></FrequencyChange></FrequencyChanges></Clock>\n",2016-12-23 14:19,84.838,1,850841515,12-23-2016,14:19:22,6:19:22,2,e,2,1,1,,,,,,,0,,-999999,39,39224,1,602,39826,,,,,,,,,aexppro111,block1,nv audio/e1_24k.wav,,,,,,,,,,,,,,,,,
nv,13,1,"<?xml version=""1.0""?>\n<Clock xmlns:dt=""urn:schemas-microsoft-com:datatypes""><Description dt:dt=""string"">E-Prime Primary Realtime Clock</Description><StartTime><Timestamp dt:dt=""int"">0</Timestamp><DateUtc dt:dt=""string"">2016-12-23T06:19:22Z</DateUtc></StartTime><FrequencyChanges><FrequencyChange><Frequency dt:dt=""r8"">3579545</Frequency><Timestamp dt:dt=""r8"">69569634487</Timestamp><Current dt:dt=""r8"">0</Current><DateUtc dt:dt=""string"">2016-12-23T06:19:22Z</DateUtc></FrequencyChange></FrequencyChanges></Clock>\n",2016-12-23 14:19,84.838,1,850841515,12-23-2016,14:19:22,6:19:22,3,i,3,1,2,,,,,,,0,,-999999,42,40379,1,676,41055,,,,,,,,,aexppro111,block1,nv audio/i1_24k.wav,,,,,,,,,,,,,,,,,
nv,13,1,"<?xml version=""1.0""?>\n<Clock xmlns:dt=""urn:schemas-microsoft-com:datatypes""><Description dt:dt=""string"">E-Prime Primary Realtime Clock</Description><StartTime><Timestamp dt:dt=""int"">0</Timestamp><DateUtc dt:dt=""string"">2016-12-23T06:19:22Z</DateUtc></StartTime><FrequencyChanges><FrequencyChange><Frequency dt:dt=""r8"">3579545</Frequency><Timestamp dt:dt=""r8"">69569634487</Timestamp><Current dt:dt=""r8"">0</Current><DateUtc dt:dt=""string"">2016-12-23T06:19:22Z</DateUtc></FrequencyChange></FrequencyChanges></Clock>\n",2016-12-23 14:19,84.838,1,850841515,12-23-2016,14:19:22,6:19:22,4,v,5,1,3,,,,,,,0,,-999999,43,41605,1,624,42229,,,,,,,,,aexppro111,block1,nv audio/y1_24k.wav,,,,,,,,,,,,,,,,,
nv,13,1,"<?xml version=""1.0""?>\n<Clock xmlns:dt=""urn:schemas-microsoft-com:datatypes""><Description dt:dt=""string"">E-Prime Primary Realtime Clock</Description><StartTime><Timestamp dt:dt=""int"">0</Timestamp><DateUtc dt:dt=""string"">2016-12-23T06:19:22Z</DateUtc></StartTime><FrequencyChanges><FrequencyChange><Frequency dt:dt=""r8"">3579545</Frequency><Timestamp dt:dt=""r8"">69569634487</Timestamp><Current dt:dt=""r8"">0</Current><DateUtc dt:dt=""string"">2016-12-23T06:19:22Z</DateUtc></FrequencyChange></FrequencyChanges></Clock>\n",2016-12-23 14:19,84.838,1,850841515,12-23-2016,14:19:22,6:19:22,5,u,4,1,4,,,,,,,0,,-999999,66,42807,1,406,43213,,,,,,,,,aexppro111,block1,nv audio/u1_24k.wav,,,,,,,,,,,,,,,,,
nv,13,1,"<?xml version=""1.0""?>\n<Clock xmlns:dt=""urn:schemas-microsoft-com:datatypes""><Description dt:dt=""string"">E-Prime Primary Realtime Clock</Description><StartTime><Timestamp dt:dt=""int"">0</Timestamp><DateUtc dt:dt=""string"">2016-12-23T06:19:22Z</DateUtc></StartTime><FrequencyChanges><FrequencyChange><Frequency dt:dt=""r8"">3579545</Frequency><Timestamp dt:dt=""r8"">69569634487</Timestamp><Current dt:dt=""r8"">0</Current><DateUtc dt:dt=""string"">2016-12-23T06:19:22Z</DateUtc></FrequencyChange></FrequencyChanges></Clock>\n",2016-12-23 14:19,84.838,1,850841515,12-23-2016,14:19:22,6:19:22,6,a,1,1,5,,,,,,,0,,-999999,43,43762,1,593,44355,,,,,,,,,aexppro111,block1,nv audio/a1_24k.wav,,,,,,,,,,,,,,,,,
nv,13,1,"<?xml version=""1.0""?>\n<Clock xmlns:dt=""urn:schemas-microsoft-com:datatypes""><Description dt:dt=""string"">E-Prime Primary Realtime Clock</Description><StartTime><Timestamp dt:dt=""int"">0</Timestamp><DateUtc dt:dt=""string"">2016-12-23T06:19:22Z</DateUtc></StartTime><FrequencyChanges><FrequencyChange><Frequency dt:dt=""r8"">3579545</Frequency><Timestamp dt:dt=""r8"">69569634487</Timestamp><Current dt:dt=""r8"">0</Current><DateUtc dt:dt=""string"">2016-12-23T06:19:22Z</DateUtc></FrequencyChange></FrequencyChanges></Clock>\n",2016-12-23 14:19,84.838,1,850841515,12-23-2016,14:19:22,6:19:22,7,i,3,2,6,,,,,,,0,,-999999,54,44917,1,586,45503,,,,,,,,,aexppro111,block1,nv audio/i1_24k.wav
nv,13,1,"<?xml version=""1.0""?>\n<Clock xmlns:dt=""urn:schemas-microsoft-com:datatypes""><Description dt:dt=""string"">E-Prime Primary Realtime Clock</Description><StartTime><Timestamp dt:dt=""int"">0</Timestamp><DateUtc dt:dt=""string"">2016-12-23T06:19:22Z</DateUtc></StartTime><FrequencyChanges><FrequencyChange><Frequency dt:dt=""r8"">3579545</Frequency><Timestamp dt:dt=""r8"">69569634487</Timestamp><Current dt:dt=""r8"">0</Current><DateUtc dt:dt=""string"">2016-12-23T06:19:22Z</DateUtc></FrequencyChange></FrequencyChanges></Clock>\n",2016-12-23 14:19,84.838,1,850841515,12-23-2016,14:19:22,6:19:22,8,u,4,2,7,,,,,,,0,,-999999,54,46060,1,628,46688,,,,,,,,,aexppro111,block1,nv audio/u1_24k.wav
nv,13,1,"<?xml version=""1.0""?>\n<Clock xmlns:dt=""urn:schemas-microsoft-com:datatypes""><Description dt:dt=""string"">E-Prime Primary Realtime Clock</Description><StartTime><Timestamp dt:dt=""int"">0</Timestamp><DateUtc dt:dt=""string"">2016-12-23T06:19:22Z</DateUtc></StartTime><FrequencyChanges><FrequencyChange><Frequency dt:dt=""r8"">3579545</Frequency><Timestamp dt:dt=""r8"">69569634487</Timestamp><Current dt:dt=""r8"">0</Current><DateUtc dt:dt=""string"">2016-12-23T06:19:22Z</DateUtc></FrequencyChange></FrequencyChanges></Clock>\n",2016-12-23 14:19,84.838,1,850841515,12-23-2016,14:19:22,6:19:22,9,a,1,2,8,,,,,,,0,,-999999,65,47262,1,843,48105,,,,,,,,,aexppro111,block1,nv audio/a1_24k.wav
nv,13,1,"<?xml version=""1.0""?>\n<Clock xmlns:dt=""urn:schemas-microsoft-com:datatypes""><Description dt:dt=""string"">E-Prime Primary Realtime Clock</Description><StartTime><Timestamp dt:dt=""int"">0</Timestamp><DateUtc dt:dt=""string"">2016-12-23T06:19:22Z</DateUtc></StartTime><FrequencyChanges><FrequencyChange><Frequency dt:dt=""r8"">3579545</Frequency><Timestamp dt:dt=""r8"">69569634487</Timestamp><Current dt:dt=""r8"">0</Current><DateUtc dt:dt=""string"">2016-12-23T06:19:22Z</DateUtc></FrequencyChange></FrequencyChanges></Clock>\n",2016-12-23 14:19,84.838,1,850841515,12-23-2016,14:19:22,6:19:22,10,e,2,2,9,,,,,,,0,,-999999,42,48653,1,1058,49711,,,,,,,,,aexppro111,block1,nv audio/e1_24k.wav
nv,13,1,"<?xml version=""1.0""?>\n<Clock xmlns:dt=""urn:schemas-microsoft-com:datatypes""><Description dt:dt=""string"">E-Prime Primary Realtime Clock</Description><StartTime><Timestamp dt:dt=""int"">0</Timestamp><DateUtc dt:dt=""string"">2016-12-23T06:19:22Z</DateUtc></StartTime><FrequencyChanges><FrequencyChange><Frequency dt:dt=""r8"">3579545</Frequency><Timestamp dt:dt=""r8"">69569634487</Timestamp><Current dt:dt=""r8"">0</Current><DateUtc dt:dt=""string"">2016-12-23T06:19:22Z</DateUtc></FrequencyChange></FrequencyChanges></Clock>\n",2016-12-23 14:19,84.838,1,850841515,12-23-2016,14:19:22,6:19:22,11,v,5,2,10,,,,,,,0,,-999999,42,50256,1,1270,51526,,,,,,,,,aexppro111,block1,nv audio/y1_24k.wav
nv,13,1,"<?xml version=""1.0""?>\n<Clock xmlns:dt=""urn:schemas-microsoft-com:datatypes""><Description dt:dt=""string"">E-Prime Primary Realtime Clock</Description><StartTime><Timestamp dt:dt=""int"">0</Timestamp><DateUtc dt:dt=""string"">2016-12-23T06:19:22Z</DateUtc></StartTime><FrequencyChanges><FrequencyChange><Frequency dt:dt=""r8"">3579545</Frequency><Timestamp dt:dt=""r8"">69569634487</Timestamp><Current dt:dt=""r8"">0</Current><DateUtc dt:dt=""string"">2016-12-23T06:19:22Z</DateUtc></FrequencyChange></FrequencyChanges></Clock>\n",2016-12-23 14:19,84.838,1,850841515,12-23-2016,14:19:22,6:19:22,12,e,2,3,11,,,,,,,0,,-999999,43,52072,1,821,52893,,,,,,,,,aexppro111,block1,nv audio/e1_24k.wav
nv,13,1,"<?xml version=""1.0""?>\n<Clock xmlns:dt=""urn:schemas-microsoft-com:datatypes""><Description dt:dt=""string"">E-Prime Primary Realtime Clock</Description><StartTime><Timestamp dt:dt=""int"">0</Timestamp><DateUtc dt:dt=""string"">2016-12-23T06:19:22Z</DateUtc></StartTime><FrequencyChanges><FrequencyChange><Frequency dt:dt=""r8"">3579545</Frequency><Timestamp dt:dt=""r8"">69569634487</Timestamp><Current dt:dt=""r8"">0</Current><DateUtc dt:dt=""string"">2016-12-23T06:19:22Z</DateUtc></FrequencyChange></FrequencyChanges></Clock>\n",2016-12-23 14:19,84.838,1,850841515,12-23-2016,14:19:22,6:19:22,13,i,3,3,12,,,,,,,0,,-999999,65,53462,1,586,54048,,,,,,,,,aexppro111,block1,nv audio/i1_24k.wav
nv,13,1,"<?xml version=""1.0""?>\n<Clock xmlns:dt=""urn:schemas-microsoft-com:datatypes""><Description dt:dt=""string"">E-Prime Primary Realtime Clock</Description><StartTime><Timestamp dt:dt=""int"">0</Timestamp><DateUtc dt:dt=""string"">2016-12-23T06:19:22Z</DateUtc></StartTime><FrequencyChanges><FrequencyChange><Frequency dt:dt=""r8"">3579545</Frequency><Timestamp dt:dt=""r8"">69569634487</Timestamp><Current dt:dt=""r8"">0</Current><DateUtc dt:dt=""string"">2016-12-23T06:19:22Z</DateUtc></FrequencyChange></FrequencyChanges></Clock>\n",2016-12-23 14:19,84.838,1,850841515,12-23-2016,14:19:22,6:19:22,14,u,4,3,13,,,,,,,0,,-999999,66,54618,1,551,55169,,,,,,,,,aexppro111,block1,nv audio/u1_24k.wav
nv,13,1,"<?xml version=""1.0""?>\n<Clock xmlns:dt=""urn:schemas-microsoft-com:datatypes""><Description dt:dt=""string"">E-Prime Primary Realtime Clock</Description><StartTime><Timestamp dt:dt=""int"">0</Timestamp><DateUtc dt:dt=""string"">2016-12-23T06:19:22Z</DateUtc></StartTime><FrequencyChanges><FrequencyChange><Frequency dt:dt=""r8"">3579545</Frequency><Timestamp dt:dt=""r8"">69569634487</Timestamp><Current dt:dt=""r8"">0</Current><DateUtc dt:dt=""string"">2016-12-23T06:19:22Z</DateUtc></FrequencyChange></FrequencyChanges></Clock>\n",2016-12-23 14:19,84.838,1,850841515,12-23-2016,14:19:22,6:19:22,15,v,5,3,14,,,,,,,0,,-999999,42,55714,1,683,56397,,,,,,,,,aexppro111,block1,nv audio/y1_24k.wav
nv,13,1,"<?xml version=""1.0""?>\n<Clock xmlns:dt=""urn:schemas-microsoft-com:datatypes""><Description dt:dt=""string"">E-Prime Primary Realtime Clock</Description><StartTime><Timestamp dt:dt=""int"">0</Timestamp><DateUtc dt:dt=""string"">2016-12-23T06:19:22Z</DateUtc></StartTime><FrequencyChanges><FrequencyChange><Frequency dt:dt=""r8"">3579545</Frequency><Timestamp dt:dt=""r8"">69569634487</Timestamp><Current dt:dt=""r8"">0</Current><DateUtc dt:dt=""string"">2016-12-23T06:19:22Z</DateUtc></FrequencyChange></FrequencyChanges></Clock>\n",2016-12-23 14:19,84.838,1,850841515,12-23-2016,14:19:22,6:19:22,16,a,1,3,15,,,,,,,0,,-999999,42,56951,1,879,57830,,,,,,,,,aexppro111,block1,nv audio/a1_24k.wav
nv,13,1,"<?xml version=""1.0""?>\n<Clock xmlns:dt=""urn:schemas-microsoft-com:datatypes""><Description dt:dt=""string"">E-Prime Primary Realtime Clock</Description><StartTime><Timestamp dt:dt=""int"">0</Timestamp><DateUtc dt:dt=""string"">2016-12-23T06:19:22Z</DateUtc></StartTime><FrequencyChanges><FrequencyChange><Frequency dt:dt=""r8"">3579545</Frequency><Timestamp dt:dt=""r8"">69569634487</Timestamp><Current dt:dt=""r8"">0</Current><DateUtc dt:dt=""string"">2016-12-23T06:19:22Z</DateUtc></FrequencyChange></FrequencyChanges></Clock>\n",2016-12-23 14:19,84.838,1,850841515,12-23-2016,14:19:22,6:19:22,17,i,3,4,16,,,,,,,0,,-999999,66,58401,1,545,58946,,,,,,,,,aexppro111,block1,nv audio/i1_24k.wav
nv,13,1,"<?xml version=""1.0""?>\n<Clock xmlns:dt=""urn:schemas-microsoft-com:datatypes""><Description dt:dt=""string"">E-Prime Primary Realtime Clock</Description><StartTime><Timestamp dt:dt=""int"">0</Timestamp><DateUtc dt:dt=""string"">2016-12-23T06:19:22Z</DateUtc></StartTime><FrequencyChanges><FrequencyChange><Frequency dt:dt=""r8"">3579545</Frequency><Timestamp dt:dt=""r8"">69569634487</Timestamp><Current dt:dt=""r8"">0</Current><DateUtc dt:dt=""string"">2016-12-23T06:19:22Z</DateUtc></FrequencyChange></FrequencyChanges></Clock>\n",2016-12-23 14:19,84.838,1,850841515,12-23-2016,14:19:22,6:19:22,18,a,1,4,17,,,,,,,0,,-999999,42,59497,1,960,60457,,,,,,,,,aexppro111,block1,nv audio/a1_24k.wav
nv,13,1,"<?xml version=""1.0""?>\n<Clock xmlns:dt=""urn:schemas-microsoft-com:datatypes""><Description dt:dt=""string"">E-Prime Primary Realtime Clock</Description><StartTime><Timestamp dt:dt=""int"">0</Timestamp><DateUtc dt:dt=""string"">2016-12-23T06:19:22Z</DateUtc></StartTime><FrequencyChanges><FrequencyChange><Frequency dt:dt=""r8"">3579545</Frequency><Timestamp dt:dt=""r8"">69569634487</Timestamp><Current dt:dt=""r8"">0</Current><DateUtc dt:dt=""string"">2016-12-23T06:19:22Z</DateUtc></FrequencyChange></FrequencyChanges></Clock>\n",2016-12-23 14:19,84.838,1,850841515,12-23-2016,14:19:22,6:19:22,19,v,5,4,18,,,,,,,0,,-999999,42,61006,1,993,61999,,,,,,,,,aexppro111,block1,nv audio/y1_24k.wav
nv,13,1,"<?xml version=""1.0""?>\n<Clock xmlns:dt=""urn:schemas-microsoft-com:datatypes""><Description dt:dt=""string"">E-Prime Primary Realtime Clock</Description><StartTime><Timestamp dt:dt=""int"">0</Timestamp><DateUtc dt:dt=""string"">2016-12-23T06:19:22Z</DateUtc></StartTime><FrequencyChanges><FrequencyChange><Frequency dt:dt=""r8"">3579545</Frequency><Timestamp dt:dt=""r8"">69569634487</Timestamp><Current dt:dt=""r8"">0</Current><DateUtc dt:dt=""string"">2016-12-23T06:19:22Z</DateUtc></FrequencyChange></FrequencyChanges></Clock>\n",2016-12-23 14:19,84.838,1,850841515,12-23-2016,14:19:22,6:19:22,20,e,2,4,19,,,,,,,0,,-999999,66,62574,1,760,63334,,,,,,,,,aexppro111,block1,nv audio/e1_24k.wav
nv,13,1,"<?xml version=""1.0""?>\n<Clock xmlns:dt=""urn:schemas-microsoft-com:datatypes""><Description dt:dt=""string"">E-Prime Primary Realtime Clock</Description><StartTime><Timestamp dt:dt=""int"">0</Timestamp><DateUtc dt:dt=""string"">2016-12-23T06:19:22Z</DateUtc></StartTime><FrequencyChanges><FrequencyChange><Frequency dt:dt=""r8"">3579545</Frequency><Timestamp dt:dt=""r8"">69569634487</Timestamp><Current dt:dt=""r8"">0</Current><DateUtc dt:dt=""string"">2016-12-23T06:19:22Z</DateUtc></FrequencyChange></FrequencyChanges></Clock>\n",2016-12-23 14:19,84.838,1,850841515,12-23-2016,14:19:22,6:19:22,21,u,4,4,20,,,,,,,0,,-999999,42,63882,1,807,64689,,,,,,,,,aexppro111,block1,nv audio/u1_24k.wav
nv,13,1,"<?xml version=""1.0""?>\n<Clock xmlns:dt=""urn:schemas-microsoft-com:datatypes""><Description dt:dt=""string"">E-Prime Primary Realtime Clock</Description><StartTime><Timestamp dt:dt=""int"">0</Timestamp><DateUtc dt:dt=""string"">2016-12-23T06:19:22Z</DateUtc></StartTime><FrequencyChanges><FrequencyChange><Frequency dt:dt=""r8"">3579545</Frequency><Timestamp dt:dt=""r8"">69569634487</Timestamp><Current dt:dt=""r8"">0</Current><DateUtc dt:dt=""string"">2016-12-23T06:19:22Z</DateUtc></FrequencyChange></FrequencyChanges></Clock>\n",2016-12-23 14:19,84.838,1,850841515,12-23-2016,14:19:22,6:19:22,22,i,3,5,21,,,,,,,0,,-999999,65,65261,1,509,65770,,,,,,,,,aexppro111,block1,nv audio/i1_24k.wav
nv,13,1,"<?xml version=""1.0""?>\n<Clock xmlns:dt=""urn:schemas-microsoft-com:datatypes""><Description dt:dt=""string"">E-Prime Primary Realtime Clock</Description><StartTime><Timestamp dt:dt=""int"">0</Timestamp><DateUtc dt:dt=""string"">2016-12-23T06:19:22Z</DateUtc></StartTime><FrequencyChanges><FrequencyChange><Frequency dt:dt=""r8"">3579545</Frequency><Timestamp dt:dt=""r8"">69569634487</Timestamp><Current dt:dt=""r8"">0</Current><DateUtc dt:dt=""string"">2016-12-23T06:19:22Z</DateUtc></FrequencyChange></FrequencyChanges></Clock>\n",2016-12-23 14:19,84.838,1,850841515,12-23-2016,14:19:22,6:19:22,23,e,2,5,22,,,,,,,0,,-999999,42,66322,1,951,67273,,,,,,,,,aexppro111,block1,nv audio/e1_24k.wav
nv,13,1,"<?xml version=""1.0""?>\n<Clock xmlns:dt=""urn:schemas-microsoft-com:datatypes""><Description dt:dt=""string"">E-Prime Primary Realtime Clock</Description><StartTime><Timestamp dt:dt=""int"">0</Timestamp><DateUtc dt:dt=""string"">2016-12-23T06:19:22Z</DateUtc></StartTime><FrequencyChanges><FrequencyChange><Frequency dt:dt=""r8"">3579545</Frequency><Timestamp dt:dt=""r8"">69569634487</Timestamp><Current dt:dt=""r8"">0</Current><DateUtc dt:dt=""string"">2016-12-23T06:19:22Z</DateUtc></FrequencyChange></FrequencyChanges></Clock>\n",2016-12-23 14:19,84.838,1,850841515,12-23-2016,14:19:22,6:19:22,24,a,1,5,23,,,,,,,0,,-999999,42,67819,1,789,68608,,,,,,,,,aexppro111,block1,nv audio/a1_24k.wav
nv,13,1,"<?xml version=""1.0""?>\n<Clock xmlns:dt=""urn:schemas-microsoft-com:datatypes""><Description dt:dt=""string"">E-Prime Primary Realtime Clock</Description><StartTime><Timestamp dt:dt=""int"">0</Timestamp><DateUtc dt:dt=""string"">2016-12-23T06:19:22Z</DateUtc></StartTime><FrequencyChanges><FrequencyChange><Frequency dt:dt=""r8"">3579545</Frequency><Timestamp dt:dt=""r8"">69569634487</Timestamp><Current dt:dt=""r8"">0</Current><DateUtc dt:dt=""string"">2016-12-23T06:19:22Z</DateUtc></FrequencyChange></FrequencyChanges></Clock>\n",2016-12-23 14:19,84.838,1,850841515,12-23-2016,14:19:22,6:19:22,25,u,4,5,24,,,,,,,0,,-999999,42,69163,1,1278,70441,,,,,,,,,aexppro111,block1,nv audio/u1_24k.wav
nv,13,1,"<?xml version=""1.0""?>\n<Clock xmlns:dt=""urn:schemas-microsoft-com:datatypes""><Description dt:dt=""string"">E-Prime Primary Realtime Clock</Description><StartTime><Timestamp dt:dt=""int"">0</Timestamp><DateUtc dt:dt=""string"">2016-12-23T06:19:22Z</DateUtc></StartTime><FrequencyChanges><FrequencyChange><Frequency dt:dt=""r8"">3579545</Frequency><Timestamp dt:dt=""r8"">69569634487</Timestamp><Current dt:dt=""r8"">0</Current><DateUtc dt:dt=""string"">2016-12-23T06:19:22Z</DateUtc></FrequencyChange></FrequencyChanges></Clock>\n",2016-12-23 14:19,84.838,1,850841515,12-23-2016,14:19:22,6:19:22,26,v,5,5,25,,,,,,,0,,-999999,42,70990,1,418,71408,,,,,,,,,aexppro111,block1,nv audio/y1_24k.wav
nv,13,1,"<?xml version=""1.0""?>\n<Clock xmlns:dt=""urn:schemas-microsoft-com:datatypes""><Description dt:dt=""string"">E-Prime Primary Realtime Clock</Description><StartTime><Timestamp dt:dt=""int"">0</Timestamp><DateUtc dt:dt=""string"">2016-12-23T06:19:22Z</DateUtc></StartTime><FrequencyChanges><FrequencyChange><Frequency dt:dt=""r8"">3579545</Frequency><Timestamp dt:dt=""r8"">69569634487</Timestamp><Current dt:dt=""r8"">0</Current><DateUtc dt:dt=""string"">2016-12-23T06:19:22Z</DateUtc></FrequencyChange></FrequencyChanges></Clock>\n",2016-12-23 14:19,84.838,1,850841515,12-23-2016,14:19:22,6:19:22,27,a,1,6,26,,,,,,,0,,-999999,66,71980,1,875,72855,,,,,,,,,aexppro111,block1,nv audio/a1_24k.wav
nv,13,1,"<?xml version=""1.0""?>\n<Clock xmlns:dt=""urn:schemas-microsoft-com:datatypes""><Description dt:dt=""string"">E-Prime Primary Realtime Clock</Description><StartTime><Timestamp dt:dt=""int"">0</Timestamp><DateUtc dt:dt=""string"">2016-12-23T06:19:22Z</DateUtc></StartTime><FrequencyChanges><FrequencyChange><Frequency dt:dt=""r8"">3579545</Frequency><Timestamp dt:dt=""r8"">69569634487</Timestamp><Current dt:dt=""r8"">0</Current><DateUtc dt:dt=""string"">2016-12-23T06:19:22Z</DateUtc></FrequencyChange></FrequencyChanges></Clock>\n",2016-12-23 14:19,84.838,1,850841515,12-23-2016,14:19:22,6:19:22,28,u,4,6,27,,,,,,,0,,-999999,30,73394,1,739,74133,,,,,,,,,aexppro111,block1,nv audio/u1_24k.wav
nv,13,1,"<?xml version=""1.0""?>\n<Clock xmlns:dt=""urn:schemas-microsoft-com:datatypes""><Description dt:dt=""string"">E-Prime Primary Realtime Clock</Description><StartTime><Timestamp dt:dt=""int"">0</Timestamp><DateUtc dt:dt=""string"">2016-12-23T06:19:22Z</DateUtc></StartTime><FrequencyChanges><FrequencyChange><Frequency dt:dt=""r8"">3579545</Frequency><Timestamp dt:dt=""r8"">69569634487</Timestamp><Current dt:dt=""r8"">0</Current><DateUtc dt:dt=""string"">2016-12-23T06:19:22Z</DateUtc></FrequencyChange></FrequencyChanges></Clock>\n",2016-12-23 14:19,84.838,1,850841515,12-23-2016,14:19:22,6:19:22,29,v,5,6,28,,,,,,,0,,-999999,42,74679,1,380,75059,,,,,,,,,aexppro111,block1,nv audio/y1_24k.wav
nv,13,1,"<?xml version=""1.0""?>\n<Clock xmlns:dt=""urn:schemas-microsoft-com:datatypes""><Description dt:dt=""string"">E-Prime Primary Realtime Clock</Description><StartTime><Timestamp dt:dt=""int"">0</Timestamp><DateUtc dt:dt=""string"">2016-12-23T06:19:22Z</DateUtc></StartTime><FrequencyChanges><FrequencyChange><Frequency dt:dt=""r8"">3579545</Frequency><Timestamp dt:dt=""r8"">69569634487</Timestamp><Current dt:dt=""r8"">0</Current><DateUtc dt:dt=""string"">2016-12-23T06:19:22Z</DateUtc></FrequencyChange></FrequencyChanges></Clock>\n",2016-12-23 14:19,84.838,1,850841515,12-23-2016,14:19:22,6:19:22,30,i,3,6,29,,,,,,,0,,-999999,54,75622,1,558,76180,,,,,,,,,aexppro111,block1,nv audio/i1_24k.wav
nv,13,1,"<?xml version=""1.0""?>\n<Clock xmlns:dt=""urn:schemas-microsoft-com:datatypes""><Description dt:dt=""string"">E-Prime Primary Realtime Clock</Description><StartTime><Timestamp dt:dt=""int"">0</Timestamp><DateUtc dt:dt=""string"">2016-12-23T06:19:22Z</DateUtc></StartTime><FrequencyChanges><FrequencyChange><Frequency dt:dt=""r8"">3579545</Frequency><Timestamp dt:dt=""r8"">69569634487</Timestamp><Current dt:dt=""r8"">0</Current><DateUtc dt:dt=""string"">2016-12-23T06:19:22Z</DateUtc></FrequencyChange></FrequencyChanges></Clock>\n",2016-12-23 14:19,84.838,1,850841515,12-23-2016,14:19:22,6:19:22,31,e,2,6,30,,,,,,,0,,-999999,42,76730,1,751,77481,,,,,,,,,aexppro111,block1,nv audio/e1_24k.wav
nv,13,1,"<?xml version=""1.0""?>\n<Clock xmlns:dt=""urn:schemas-microsoft-com:datatypes""><Description dt:dt=""string"">E-Prime Primary Realtime Clock</Description><StartTime><Timestamp dt:dt=""int"">0</Timestamp><DateUtc dt:dt=""string"">2016-12-23T06:19:22Z</DateUtc></StartTime><FrequencyChanges><FrequencyChange><Frequency dt:dt=""r8"">3579545</Frequency><Timestamp dt:dt=""r8"">69569634487</Timestamp><Current dt:dt=""r8"">0</Current><DateUtc dt:dt=""string"">2016-12-23T06:19:22Z</DateUtc></FrequencyChange></FrequencyChanges></Clock>\n",2016-12-23 14:19,84.838,1,850841515,12-23-2016,14:19:22,6:19:22,32,,1,7,31,,,,,,,0,,-999999,42,78027,1,706,78733,,,,,,,,,aexppro111,block1,nv audio/a1_24k.wav
nv,13,1,"<?xml version=""1.0""?>\n<Clock xmlns:dt=""urn:schemas-microsoft-com:datatypes""><Description dt:dt=""string"">E-Prime Primary Realtime Clock</Description><StartTime><Timestamp dt:dt=""int"">0</Timestamp><DateUtc dt:dt=""string"">2016-12-23T06:19:22Z</DateUtc></StartTime><FrequencyChanges><FrequencyChange><Frequency dt:dt=""r8"">3579545</Frequency><Timestamp dt:dt=""r8"">69569634487</Timestamp><Current dt:dt=""r8"">0</Current><DateUtc dt:dt=""string"">2016-12-23T06:19:22Z</DateUtc></FrequencyChange></FrequencyChanges></Clock>\n",2016-12-23 14:19,84.838,1,850841515,12-23-2016,14:19:22,6:19:22,33,u,4,7,32,,,,,,,0,,-999999,42,80290,1,1089,81379,,,,,,,,,aexppro111,block1,nv audio/u1_24k.wav
nv,13,1,"<?xml version=""1.0""?>\n<Clock xmlns:dt=""urn:schemas-microsoft-com:datatypes""><Description dt:dt=""string"">E-Prime Primary Realtime Clock</Description><StartTime><Timestamp dt:dt=""int"">0</Timestamp><DateUtc dt:dt=""string"">2016-12-23T06:19:22Z</DateUtc></StartTime><FrequencyChanges><FrequencyChange><Frequency dt:dt=""r8"">3579545</Frequency><Timestamp dt:dt=""r8"">69569634487</Timestamp><Current dt:dt=""r8"">0</Current><DateUtc dt:dt=""string"">2016-12-23T06:19:22Z</DateUtc></FrequencyChange></FrequencyChanges></Clock>\n",2016-12-23 14:19,84.838,1,850841515,12-23-2016,14:19:22,6:19:22,34,v,5,7,33,,,,,,,0,,-999999,42,81928,1,548,82476,,,,,,,,,aexppro111,block1,nv audio/y1_24k.wav
nv,13,1,"<?xml version=""1.0""?>\n<Clock xmlns:dt=""urn:schemas-microsoft-com:datatypes""><Description dt:dt=""string"">E-Prime Primary Realtime Clock</Description><StartTime><Timestamp dt:dt=""int"">0</Timestamp><DateUtc dt:dt=""string"">2016-12-23T06:19:22Z</DateUtc></StartTime><FrequencyChanges><FrequencyChange><Frequency dt:dt=""r8"">3579545</Frequency><Timestamp dt:dt=""r8"">69569634487</Timestamp><Current dt:dt=""r8"">0</Current><DateUtc dt:dt=""string"">2016-12-23T06:19:22Z</DateUtc></FrequencyChange></FrequencyChanges></Clock>\n",2016-12-23 14:19,84.838,1,850841515,12-23-2016,14:19:22,6:19:22,35,e,2,7,34,,,,,,,0,,-999999,43,83025,1,701,83726,,,,,,,,,aexppro111,block1,nv audio/e1_24k.wav
nv,13,1,"<?xml version=""1.0""?>\n<Clock xmlns:dt=""urn:schemas-microsoft-com:datatypes""><Description dt:dt=""string"">E-Prime Primary Realtime Clock</Description><StartTime><Timestamp dt:dt=""int"">0</Timestamp><DateUtc dt:dt=""string"">2016-12-23T06:19:22Z</DateUtc></StartTime><FrequencyChanges><FrequencyChange><Frequency dt:dt=""r8"">3579545</Frequency><Timestamp dt:dt=""r8"">69569634487</Timestamp><Current dt:dt=""r8"">0</Current><DateUtc dt:dt=""string"">2016-12-23T06:19:22Z</DateUtc></FrequencyChange></FrequencyChanges></Clock>\n",2016-12-23 14:19,84.838,1,850841515,12-23-2016,14:19:22,6:19:22,36,i,3,7,35,,,,,,,0,,-999999,42,84274,1,890,85164,,,,,,,,,aexppro111,block1,nv audio/i1_24k.wav
nv,13,1,"<?xml version=""1.0""?>\n<Clock xmlns:dt=""urn:schemas-microsoft-com:datatypes""><Description dt:dt=""string"">E-Prime Primary Realtime Clock</Description><StartTime><Timestamp dt:dt=""int"">0</Timestamp><DateUtc dt:dt=""string"">2016-12-23T06:19:22Z</DateUtc></StartTime><FrequencyChanges><FrequencyChange><Frequency dt:dt=""r8"">3579545</Frequency><Timestamp dt:dt=""r8"">69569634487</Timestamp><Current dt:dt=""r8"">0</Current><DateUtc dt:dt=""string"">2016-12-23T06:19:22Z</DateUtc></FrequencyChange></FrequencyChanges></Clock>\n",2016-12-23 14:19,84.838,1,850841515,12-23-2016,14:19:22,6:19:22,37,u,4,8,36,,,,,,,0,,-999999,42,85712,1,955,86667,,,,,,,,,aexppro111,block1,nv audio/u1_24k.wav
nv,13,1,"<?xml version=""1.0""?>\n<Clock xmlns:dt=""urn:schemas-microsoft-com:datatypes""><Description dt:dt=""string"">E-Prime Primary Realtime Clock</Description><StartTime><Timestamp dt:dt=""int"">0</Timestamp><DateUtc dt:dt=""string"">2016-12-23T06:19:22Z</DateUtc></StartTime><FrequencyChanges><FrequencyChange><Frequency dt:dt=""r8"">3579545</Frequency><Timestamp dt:dt=""r8"">69569634487</Timestamp><Current dt:dt=""r8"">0</Current><DateUtc dt:dt=""string"">2016-12-23T06:19:22Z</DateUtc></FrequencyChange></FrequencyChanges></Clock>\n",2016-12-23 14:19,84.838,1,850841515,12-23-2016,14:19:22,6:19:22,38,e,2,8,37,,,,,,,0,,-999999,65,87244,1,1020,88264,,,,,,,,,aexppro111,block1,nv audio/e1_24k.wav
nv,13,1,"<?xml version=""1.0""?>\n<Clock xmlns:dt=""urn:schemas-microsoft-com:datatypes""><Description dt:dt=""string"">E-Prime Primary Realtime Clock</Description><StartTime><Timestamp dt:dt=""int"">0</Timestamp><DateUtc dt:dt=""string"">2016-12-23T06:19:22Z</DateUtc></StartTime><FrequencyChanges><FrequencyChange><Frequency dt:dt=""r8"">3579545</Frequency><Timestamp dt:dt=""r8"">69569634487</Timestamp><Current dt:dt=""r8"">0</Current><DateUtc dt:dt=""string"">2016-12-23T06:19:22Z</DateUtc></FrequencyChange></FrequencyChanges></Clock>\n",2016-12-23 14:19,84.838,1,850841515,12-23-2016,14:19:22,6:19:22,39,v,5,8,38,,,,,,,0,,-999999,54,88824,1,1203,90027,,,,,,,,,aexppro111,block1,nv audio/y1_24k.wav,
nv,13,1,"<?xml version=""1.0""?>\n<Clock xmlns:dt=""urn:schemas-microsoft-com:datatypes""><Description dt:dt=""string"">E-Prime Primary Realtime Clock</Description><StartTime><Timestamp dt:dt=""int"">0</Timestamp><DateUtc dt:dt=""string"">2016-12-23T06:19:22Z</DateUtc></StartTime><FrequencyChanges><FrequencyChange><Frequency dt:dt=""r8"">3579545</Frequency><Timestamp dt:dt=""r8"">69569634487</Timestamp><Current dt:dt=""r8"">0</Current><DateUtc dt:dt=""string"">2016-12-23T06:19:22Z</DateUtc></FrequencyChange></FrequencyChanges></Clock>\n",2016-12-23 14:19,84.838,1,850841515,12-23-2016,14:19:22,6:19:22,40,i,3,8,39,,,,,,,0,,-999999,54,90592,1,638,91230,,,,,,,,,aexppro111,block1,nv audio/i1_24k.wav,
nv,13,1,"<?xml version=""1.0""?>\n<Clock xmlns:dt=""urn:schemas-microsoft-com:datatypes""><Description dt:dt=""string"">E-Prime Primary Realtime Clock</Description><StartTime><Timestamp dt:dt=""int"">0</Timestamp><DateUtc dt:dt=""string"">2016-12-23T06:19:22Z</DateUtc></StartTime><FrequencyChanges><FrequencyChange><Frequency dt:dt=""r8"">3579545</Frequency><Timestamp dt:dt=""r8"">69569634487</Timestamp><Current dt:dt=""r8"">0</Current><DateUtc dt:dt=""string"">2016-12-23T06:19:22Z</DateUtc></FrequencyChange></FrequencyChanges></Clock>\n",2016-12-23 14:19,84.838,1,850841515,12-23-2016,14:19:22,6:19:22,41,a,1,8,40,,,,,,,0,,-999999,66,91806,1,846,92652,,,,,,,,,aexppro111,block1,nv audio/a1_24k.wav,
nv,13,1,"<?xml version=""1.0""?>\n<Clock xmlns:dt=""urn:schemas-microsoft-com:datatypes""><Description dt:dt=""string"">E-Prime Primary Realtime Clock</Description><StartTime><Timestamp dt:dt=""int"">0</Timestamp><DateUtc dt:dt=""string"">2016-12-23T06:19:22Z</DateUtc></StartTime><FrequencyChanges><FrequencyChange><Frequency dt:dt=""r8"">3579545</Frequency><Timestamp dt:dt=""r8"">69569634487</Timestamp><Current dt:dt=""r8"">0</Current><DateUtc dt:dt=""string"">2016-12-23T06:19:22Z</DateUtc></FrequencyChange></FrequencyChanges></Clock>\n",2016-12-23 14:19,84.838,1,850841515,12-23-2016,14:19:22,6:19:22,42,a,1,9,41,,,,,,,0,,-999999,42,93197,1,821,94018,,,,,,,,,aexppro111,block1,nv audio/a1_24k.wav,
nv,13,1,"<?xml version=""1.0""?>\n<Clock xmlns:dt=""urn:schemas-microsoft-com:datatypes""><Description dt:dt=""string"">E-Prime Primary Realtime Clock</Description><StartTime><Timestamp dt:dt=""int"">0</Timestamp><DateUtc dt:dt=""string"">2016-12-23T06:19:22Z</DateUtc></StartTime><FrequencyChanges><FrequencyChange><Frequency dt:dt=""r8"">3579545</Frequency><Timestamp dt:dt=""r8"">69569634487</Timestamp><Current dt:dt=""r8"">0</Current><DateUtc dt:dt=""string"">2016-12-23T06:19:22Z</DateUtc></FrequencyChange></FrequencyChanges></Clock>\n",2016-12-23 14:19,84.838,1,850841515,12-23-2016,14:19:22,6:19:22,43,e,2,9,42,,,,,,,0,,-999999,66,94588,1,578,95166,,,,,,,,,aexppro111,block1,nv audio/e1_24k.wav,
nv,13,1,"<?xml version=""1.0""?>\n<Clock xmlns:dt=""urn:schemas-microsoft-com:datatypes""><Description dt:dt=""string"">E-Prime Primary Realtime Clock</Description><StartTime><Timestamp dt:dt=""int"">0</Timestamp><DateUtc dt:dt=""string"">2016-12-23T06:19:22Z</DateUtc></StartTime><FrequencyChanges><FrequencyChange><Frequency dt:dt=""r8"">3579545</Frequency><Timestamp dt:dt=""r8"">69569634487</Timestamp><Current dt:dt=""r8"">0</Current><DateUtc dt:dt=""string"">2016-12-23T06:19:22Z</DateUtc></FrequencyChange></FrequencyChanges></Clock>\n",2016-12-23 14:19,84.838,1,850841515,12-23-2016,14:19:22,6:19:22,44,u,4,9,43,,,,,,,0,,-999999,54,95731,1,999,96730,,,,,,,,,aexppro111,block1,nv audio/u1_24k.wav,
nv,13,1,"<?xml version=""1.0""?>\n<Clock xmlns:dt=""urn:schemas-microsoft-com:datatypes""><Description dt:dt=""string"">E-Prime Primary Realtime Clock</Description><StartTime><Timestamp dt:dt=""int"">0</Timestamp><DateUtc dt:dt=""string"">2016-12-23T06:19:22Z</DateUtc></StartTime><FrequencyChanges><FrequencyChange><Frequency dt:dt=""r8"">3579545</Frequency><Timestamp dt:dt=""r8"">69569634487</Timestamp><Current dt:dt=""r8"">0</Current><DateUtc dt:dt=""string"">2016-12-23T06:19:22Z</DateUtc></FrequencyChange></FrequencyChanges></Clock>\n",2016-12-23 14:19,84.838,1,850841515,12-23-2016,14:19:22,6:19:22,45,v,5,9,44,,,,,,,0,,-999999,42,97275,1,532,97807,,,,,,,,,aexppro111,block1,nv audio/y1_24k.wav,
nv,13,1,"<?xml version=""1.0""?>\n<Clock xmlns:dt=""urn:schemas-microsoft-com:datatypes""><Description dt:dt=""string"">E-Prime Primary Realtime Clock</Description><StartTime><Timestamp dt:dt=""int"">0</Timestamp><DateUtc dt:dt=""string"">2016-12-23T06:19:22Z</DateUtc></StartTime><FrequencyChanges><FrequencyChange><Frequency dt:dt=""r8"">3579545</Frequency><Timestamp dt:dt=""r8"">69569634487</Timestamp><Current dt:dt=""r8"">0</Current><DateUtc dt:dt=""string"">2016-12-23T06:19:22Z</DateUtc></FrequencyChange></FrequencyChanges></Clock>\n",2016-12-23 14:19,84.838,1,850841515,12-23-2016,14:19:22,6:19:22,46,i,3,9,45,,,,,,,0,,-999999,31,98348,1,639,98987,,,,,,,,,aexppro111,block1,nv audio/i1_24k.wav,
nv,13,1,"<?xml version=""1.0""?>\n<Clock xmlns:dt=""urn:schemas-microsoft-com:datatypes""><Description dt:dt=""string"">E-Prime Primary Realtime Clock</Description><StartTime><Timestamp dt:dt=""int"">0</Timestamp><DateUtc dt:dt=""string"">2016-12-23T06:19:22Z</DateUtc></StartTime><FrequencyChanges><FrequencyChange><Frequency dt:dt=""r8"">3579545</Frequency><Timestamp dt:dt=""r8"">69569634487</Timestamp><Current dt:dt=""r8"">0</Current><DateUtc dt:dt=""string"">2016-12-23T06:19:22Z</DateUtc></FrequencyChange></FrequencyChanges></Clock>\n",2016-12-23 14:19,84.838,1,850841515,12-23-2016,14:19:22,6:19:22,47,v,5,10,46,,,,,,,0,,-999999,42,99538,1,1196,100734,,,,,,,,,aexppro111,block1,nv audio/y1_24k.wav,
nv,13,1,"<?xml version=""1.0""?>\n<Clock xmlns:dt=""urn:schemas-microsoft-com:datatypes""><Description dt:dt=""string"">E-Prime Primary Realtime Clock</Description><StartTime><Timestamp dt:dt=""int"">0</Timestamp><DateUtc dt:dt=""string"">2016-12-23T06:19:22Z</DateUtc></StartTime><FrequencyChanges><FrequencyChange><Frequency dt:dt=""r8"">3579545</Frequency><Timestamp dt:dt=""r8"">69569634487</Timestamp><Current dt:dt=""r8"">0</Current><DateUtc dt:dt=""string"">2016-12-23T06:19:22Z</DateUtc></FrequencyChange></FrequencyChanges></Clock>\n",2016-12-23 14:19,84.838,1,850841515,12-23-2016,14:19:22,6:19:22,48,u,4,10,47,,,,,,,0,,-999999,65,101306,1,537,101843,,,,,,,,,aexppro111,block1,nv audio/u1_24k.wav,
nv,13,1,"<?xml version=""1.0""?>\n<Clock xmlns:dt=""urn:schemas-microsoft-com:datatypes""><Description dt:dt=""string"">E-Prime Primary Realtime Clock</Description><StartTime><Timestamp dt:dt=""int"">0</Timestamp><DateUtc dt:dt=""string"">2016-12-23T06:19:22Z</DateUtc></StartTime><FrequencyChanges><FrequencyChange><Frequency dt:dt=""r8"">3579545</Frequency><Timestamp dt:dt=""r8"">69569634487</Timestamp><Current dt:dt=""r8"">0</Current><DateUtc dt:dt=""string"">2016-12-23T06:19:22Z</DateUtc></FrequencyChange></FrequencyChanges></Clock>\n",2016-12-23 14:19,84.838,1,850841515,12-23-2016,14:19:22,6:19:22,49,a,1,10,48,,,,,,,0,,-999999,54,102403,1,903,103306,,,,,,,,,aexppro111,block1,nv audio/a1_24k.wav,
nv,13,1,"<?xml version=""1.0""?>\n<Clock xmlns:dt=""urn:schemas-microsoft-com:datatypes""><Description dt:dt=""string"">E-Prime Primary Realtime Clock</Description><StartTime><Timestamp dt:dt=""int"">0</Timestamp><DateUtc dt:dt=""string"">2016-12-23T06:19:22Z</DateUtc></StartTime><FrequencyChanges><FrequencyChange><Frequency dt:dt=""r8"">3579545</Frequency><Timestamp dt:dt=""r8"">69569634487</Timestamp><Current dt:dt=""r8"">0</Current><DateUtc dt:dt=""string"">2016-12-23T06:19:22Z</DateUtc></FrequencyChange></FrequencyChanges></Clock>\n",2016-12-23 14:19,84.838,1,850841515,12-23-2016,14:19:22,6:19:22,50,i,3,10,49,,,,,,,0,,-999999,42,103852,1,665,104517,,,,,,,,,aexppro111,block1,nv audio/i1_24k.wav,
nv,13,1,"<?xml version=""1.0""?>\n<Clock xmlns:dt=""urn:schemas-microsoft-com:datatypes""><Description dt:dt=""string"">E-Prime Primary Realtime Clock</Description><StartTime><Timestamp dt:dt=""int"">0</Timestamp><DateUtc dt:dt=""string"">2016-12-23T06:19:22Z</DateUtc></StartTime><FrequencyChanges><FrequencyChange><Frequency dt:dt=""r8"">3579545</Frequency><Timestamp dt:dt=""r8"">69569634487</Timestamp><Current dt:dt=""r8"">0</Current><DateUtc dt:dt=""string"">2016-12-23T06:19:22Z</DateUtc></FrequencyChange></FrequencyChanges></Clock>\n",2016-12-23 14:19,84.838,1,850841515,12-23-2016,14:19:22,6:19:22,51,e,2,10,50,,,,,,,0,,-999999,66,105090,1,726,105816,,,,,,,,,aexppro111,block1,nv audio/e1_24k.wav,
nv,13,1,"<?xml version=""1.0""?>\n<Clock xmlns:dt=""urn:schemas-microsoft-com:datatypes""><Description dt:dt=""string"">E-Prime Primary Realtime Clock</Description><StartTime><Timestamp dt:dt=""int"">0</Timestamp><DateUtc dt:dt=""string"">2016-12-23T06:19:22Z</DateUtc></StartTime><FrequencyChanges><FrequencyChange><Frequency dt:dt=""r8"">3579545</Frequency><Timestamp dt:dt=""r8"">69569634487</Timestamp><Current dt:dt=""r8"">0</Current><DateUtc dt:dt=""string"">2016-12-23T06:19:22Z</DateUtc></FrequencyChange></FrequencyChanges></Clock>\n",2016-12-23 14:19,84.838,1,850841515,12-23-2016,14:19:22,6:19:22,52,i,,,,3,1,1,,,,,,,,,,,,0,,-999999,60,167833,1,904,168737,aexppro112,block2,,nv audio/i1_24k.wav
nv,13,1,"<?xml version=""1.0""?>\n<Clock xmlns:dt=""urn:schemas-microsoft-com:datatypes""><Description dt:dt=""string"">E-Prime Primary Realtime Clock</Description><StartTime><Timestamp dt:dt=""int"">0</Timestamp><DateUtc dt:dt=""string"">2016-12-23T06:19:22Z</DateUtc></StartTime><FrequencyChanges><FrequencyChange><Frequency dt:dt=""r8"">3579545</Frequency><Timestamp dt:dt=""r8"">69569634487</Timestamp><Current dt:dt=""r8"">0</Current><DateUtc dt:dt=""string"">2016-12-23T06:19:22Z</DateUtc></FrequencyChange></FrequencyChanges></Clock>\n",2016-12-23 14:19,84.838,1,850841515,12-23-2016,14:19:22,6:19:22,53,u,,,,4,1,2,,,,,,,,,,,,0,,-999999,65,169306,1,1014,170320,aexppro112,block2,,nv audio/u1_24k.wav
nv,13,1,"<?xml version=""1.0""?>\n<Clock xmlns:dt=""urn:schemas-microsoft-com:datatypes""><Description dt:dt=""string"">E-Prime Primary Realtime Clock</Description><StartTime><Timestamp dt:dt=""int"">0</Timestamp><DateUtc dt:dt=""string"">2016-12-23T06:19:22Z</DateUtc></StartTime><FrequencyChanges><FrequencyChange><Frequency dt:dt=""r8"">3579545</Frequency><Timestamp dt:dt=""r8"">69569634487</Timestamp><Current dt:dt=""r8"">0</Current><DateUtc dt:dt=""string"">2016-12-23T06:19:22Z</DateUtc></FrequencyChange></FrequencyChanges></Clock>\n",2016-12-23 14:19,84.838,1,850841515,12-23-2016,14:19:22,6:19:22,54,a,,,,1,1,3,,,,,,,,,,,,0,,-999999,30,170862,1,731,171593,aexppro112,block2,,nv audio/a1_24k.wav
nv,13,1,"<?xml version=""1.0""?>\n<Clock xmlns:dt=""urn:schemas-microsoft-com:datatypes""><Description dt:dt=""string"">E-Prime Primary Realtime Clock</Description><StartTime><Timestamp dt:dt=""int"">0</Timestamp><DateUtc dt:dt=""string"">2016-12-23T06:19:22Z</DateUtc></StartTime><FrequencyChanges><FrequencyChange><Frequency dt:dt=""r8"">3579545</Frequency><Timestamp dt:dt=""r8"">69569634487</Timestamp><Current dt:dt=""r8"">0</Current><DateUtc dt:dt=""string"">2016-12-23T06:19:22Z</DateUtc></FrequencyChange></FrequencyChanges></Clock>\n",2016-12-23 14:19,84.838,1,850841515,12-23-2016,14:19:22,6:19:22,55,v,,,,5,1,4,,,,,,,,,,,,0,,-999999,42,172147,1,1108,173255,aexppro112,block2,,nv audio/y1_24k.wav
nv,13,1,"<?xml version=""1.0""?>\n<Clock xmlns:dt=""urn:schemas-microsoft-com:datatypes""><Description dt:dt=""string"">E-Prime Primary Realtime Clock</Description><StartTime><Timestamp dt:dt=""int"">0</Timestamp><DateUtc dt:dt=""string"">2016-12-23T06:19:22Z</DateUtc></StartTime><FrequencyChanges><FrequencyChange><Frequency dt:dt=""r8"">3579545</Frequency><Timestamp dt:dt=""r8"">69569634487</Timestamp><Current dt:dt=""r8"">0</Current><DateUtc dt:dt=""string"">2016-12-23T06:19:22Z</DateUtc></FrequencyChange></FrequencyChanges></Clock>\n",2016-12-23 14:19,84.838,1,850841515,12-23-2016,14:19:22,6:19:22,56,e,,,,2,1,5,,,,,,,,,,,,0,,-999999,42,173809,1,592,174401,aexppro112,block2,,nv audio/e1_24k.wav
nv,13,1,"<?xml version=""1.0""?>\n<Clock xmlns:dt=""urn:schemas-microsoft-com:datatypes""><Description dt:dt=""string"">E-Prime Primary Realtime Clock</Description><StartTime><Timestamp dt:dt=""int"">0</Timestamp><DateUtc dt:dt=""string"">2016-12-23T06:19:22Z</DateUtc></StartTime><FrequencyChanges><FrequencyChange><Frequency dt:dt=""r8"">3579545</Frequency><Timestamp dt:dt=""r8"">69569634487</Timestamp><Current dt:dt=""r8"">0</Current><DateUtc dt:dt=""string"">2016-12-23T06:19:22Z</DateUtc></FrequencyChange></FrequencyChanges></Clock>\n",2016-12-23 14:19,84.838,1,850841515,12-23-2016,14:19:22,6:19:22,57,e,,,,2,2,6,,,,,,,,,,,,0,,-999999,54,174964,1,590,175554,aexppro112,block2,,nv audio/e1_24k.wav
nv,13,1,"<?xml version=""1.0""?>\n<Clock xmlns:dt=""urn:schemas-microsoft-com:datatypes""><Description dt:dt=""string"">E-Prime Primary Realtime Clock</Description><StartTime><Timestamp dt:dt=""int"">0</Timestamp><DateUtc dt:dt=""string"">2016-12-23T06:19:22Z</DateUtc></StartTime><FrequencyChanges><FrequencyChange><Frequency dt:dt=""r8"">3579545</Frequency><Timestamp dt:dt=""r8"">69569634487</Timestamp><Current dt:dt=""r8"">0</Current><DateUtc dt:dt=""string"">2016-12-23T06:19:22Z</DateUtc></FrequencyChange></FrequencyChanges></Clock>\n",2016-12-23 14:19,84.838,1,850841515,12-23-2016,14:19:22,6:19:22,58,u,,,,4,2,7,,,,,,,,,,,,0,,-999999,31,176096,1,724,176820,aexppro112,block2,,nv audio/u1_24k.wav
nv,13,1,"<?xml version=""1.0""?>\n<Clock xmlns:dt=""urn:schemas-microsoft-com:datatypes""><Description dt:dt=""string"">E-Prime Primary Realtime Clock</Description><StartTime><Timestamp dt:dt=""int"">0</Timestamp><DateUtc dt:dt=""string"">2016-12-23T06:19:22Z</DateUtc></StartTime><FrequencyChanges><FrequencyChange><Frequency dt:dt=""r8"">3579545</Frequency><Timestamp dt:dt=""r8"">69569634487</Timestamp><Current dt:dt=""r8"">0</Current><DateUtc dt:dt=""string"">2016-12-23T06:19:22Z</DateUtc></FrequencyChange></FrequencyChanges></Clock>\n",2016-12-23 14:19,84.838,1,850841515,12-23-2016,14:19:22,6:19:22,59,i,,,,3,2,8,,,,,,,,,,,,0,,-999999,42,177369,1,652,178021,aexppro112,block2,,nv audio/i1_24k.wav
nv,13,1,"<?xml version=""1.0""?>\n<Clock xmlns:dt=""urn:schemas-microsoft-com:datatypes""><Description dt:dt=""string"">E-Prime Primary Realtime Clock</Description><StartTime><Timestamp dt:dt=""int"">0</Timestamp><DateUtc dt:dt=""string"">2016-12-23T06:19:22Z</DateUtc></StartTime><FrequencyChanges><FrequencyChange><Frequency dt:dt=""r8"">3579545</Frequency><Timestamp dt:dt=""r8"">69569634487</Timestamp><Current dt:dt=""r8"">0</Current><DateUtc dt:dt=""string"">2016-12-23T06:19:22Z</DateUtc></FrequencyChange></FrequencyChanges></Clock>\n",2016-12-23 14:19,84.838,1,850841515,12-23-2016,14:19:22,6:19:22,60,a,,,,1,2,9,,,,,,,,,,,,0,,-999999,42,178571,1,950,179521,aexppro112,block2,,nv audio/a1_24k.wav
nv,13,1,"<?xml version=""1.0""?>\n<Clock xmlns:dt=""urn:schemas-microsoft-com:datatypes""><Description dt:dt=""string"">E-Prime Primary Realtime Clock</Description><StartTime><Timestamp dt:dt=""int"">0</Timestamp><DateUtc dt:dt=""string"">2016-12-23T06:19:22Z</DateUtc></StartTime><FrequencyChanges><FrequencyChange><Frequency dt:dt=""r8"">3579545</Frequency><Timestamp dt:dt=""r8"">69569634487</Timestamp><Current dt:dt=""r8"">0</Current><DateUtc dt:dt=""string"">2016-12-23T06:19:22Z</DateUtc></FrequencyChange></FrequencyChanges></Clock>\n",2016-12-23 14:19,84.838,1,850841515,12-23-2016,14:19:22,6:19:22,61,v,,,,5,2,10,,,,,,,,,,,,0,,-999999,42,180068,1,1117,181185,aexppro112,block2,,nv audio/y1_24k.wav
nv,13,1,"<?xml version=""1.0""?>\n<Clock xmlns:dt=""urn:schemas-microsoft-com:datatypes""><Description dt:dt=""string"">E-Prime Primary Realtime Clock</Description><StartTime><Timestamp dt:dt=""int"">0</Timestamp><DateUtc dt:dt=""string"">2016-12-23T06:19:22Z</DateUtc></StartTime><FrequencyChanges><FrequencyChange><Frequency dt:dt=""r8"">3579545</Frequency><Timestamp dt:dt=""r8"">69569634487</Timestamp><Current dt:dt=""r8"">0</Current><DateUtc dt:dt=""string"">2016-12-23T06:19:22Z</DateUtc></FrequencyChange></FrequencyChanges></Clock>\n",2016-12-23 14:19,84.838,1,850841515,12-23-2016,14:19:22,6:19:22,62,u,,,,4,3,11,,,,,,,,,,,,0,,-999999,42,181730,1,482,182212,aexppro112,block2,,nv audio/u1_24k.wav
nv,13,1,"<?xml version=""1.0""?>\n<Clock xmlns:dt=""urn:schemas-microsoft-com:datatypes""><Description dt:dt=""string"">E-Prime Primary Realtime Clock</Description><StartTime><Timestamp dt:dt=""int"">0</Timestamp><DateUtc dt:dt=""string"">2016-12-23T06:19:22Z</DateUtc></StartTime><FrequencyChanges><FrequencyChange><Frequency dt:dt=""r8"">3579545</Frequency><Timestamp dt:dt=""r8"">69569634487</Timestamp><Current dt:dt=""r8"">0</Current><DateUtc dt:dt=""string"">2016-12-23T06:19:22Z</DateUtc></FrequencyChange></FrequencyChanges></Clock>\n",2016-12-23 14:19,84.838,1,850841515,12-23-2016,14:19:22,6:19:22,63,e,,,,2,3,12,,,,,,,,,,,,0,,-999999,42,182756,1,497,183253,aexppro112,block2,,nv audio/e1_24k.wav
nv,13,1,"<?xml version=""1.0""?>\n<Clock xmlns:dt=""urn:schemas-microsoft-com:datatypes""><Description dt:dt=""string"">E-Prime Primary Realtime Clock</Description><StartTime><Timestamp dt:dt=""int"">0</Timestamp><DateUtc dt:dt=""string"">2016-12-23T06:19:22Z</DateUtc></StartTime><FrequencyChanges><FrequencyChange><Frequency dt:dt=""r8"">3579545</Frequency><Timestamp dt:dt=""r8"">69569634487</Timestamp><Current dt:dt=""r8"">0</Current><DateUtc dt:dt=""string"">2016-12-23T06:19:22Z</DateUtc></FrequencyChange></FrequencyChanges></Clock>\n",2016-12-23 14:19,84.838,1,850841515,12-23-2016,14:19:22,6:19:22,64,i,,,,3,3,13,,,,,,,,,,,,0,,-999999,43,183805,1,590,184395,aexppro112,block2,,nv audio/i1_24k.wav
nv,13,1,"<?xml version=""1.0""?>\n<Clock xmlns:dt=""urn:schemas-microsoft-com:datatypes""><Description dt:dt=""string"">E-Prime Primary Realtime Clock</Description><StartTime><Timestamp dt:dt=""int"">0</Timestamp><DateUtc dt:dt=""string"">2016-12-23T06:19:22Z</DateUtc></StartTime><FrequencyChanges><FrequencyChange><Frequency dt:dt=""r8"">3579545</Frequency><Timestamp dt:dt=""r8"">69569634487</Timestamp><Current dt:dt=""r8"">0</Current><DateUtc dt:dt=""string"">2016-12-23T06:19:22Z</DateUtc></FrequencyChange></FrequencyChanges></Clock>\n",2016-12-23 14:19,84.838,1,850841515,12-23-2016,14:19:22,6:19:22,65,v,,,,5,3,14,,,,,,,,,,,,0,,-999999,42,184948,1,972,185920,aexppro112,block2,,nv audio/y1_24k.wav
nv,13,1,"<?xml version=""1.0""?>\n<Clock xmlns:dt=""urn:schemas-microsoft-com:datatypes""><Description dt:dt=""string"">E-Prime Primary Realtime Clock</Description><StartTime><Timestamp dt:dt=""int"">0</Timestamp><DateUtc dt:dt=""string"">2016-12-23T06:19:22Z</DateUtc></StartTime><FrequencyChanges><FrequencyChange><Frequency dt:dt=""r8"">3579545</Frequency><Timestamp dt:dt=""r8"">69569634487</Timestamp><Current dt:dt=""r8"">0</Current><DateUtc dt:dt=""string"">2016-12-23T06:19:22Z</DateUtc></FrequencyChange></FrequencyChanges></Clock>\n",2016-12-23 14:19,84.838,1,850841515,12-23-2016,14:19:22,6:19:22,66,,,,,1,3,15,,,,,,,,,,,,0,,-999999,31,186457,1,833,187290,aexppro112,block2,,nv audio/a1_24k.wav
nv,13,1,"<?xml version=""1.0""?>\n<Clock xmlns:dt=""urn:schemas-microsoft-com:datatypes""><Description dt:dt=""string"">E-Prime Primary Realtime Clock</Description><StartTime><Timestamp dt:dt=""int"">0</Timestamp><DateUtc dt:dt=""string"">2016-12-23T06:19:22Z</DateUtc></StartTime><FrequencyChanges><FrequencyChange><Frequency dt:dt=""r8"">3579545</Frequency><Timestamp dt:dt=""r8"">69569634487</Timestamp><Current dt:dt=""r8"">0</Current><DateUtc dt:dt=""string"">2016-12-23T06:19:22Z</DateUtc></FrequencyChange></FrequencyChanges></Clock>\n",2016-12-23 14:19,84.838,1,850841515,12-23-2016,14:19:22,6:19:22,67,a,,,,1,4,16,,,,,,,,,,,,0,,-999999,43,188838,1,487,189325,aexppro112,block2,,nv audio/a1_24k.wav
nv,13,1,"<?xml version=""1.0""?>\n<Clock xmlns:dt=""urn:schemas-microsoft-com:datatypes""><Description dt:dt=""string"">E-Prime Primary Realtime Clock</Description><StartTime><Timestamp dt:dt=""int"">0</Timestamp><DateUtc dt:dt=""string"">2016-12-23T06:19:22Z</DateUtc></StartTime><FrequencyChanges><FrequencyChange><Frequency dt:dt=""r8"">3579545</Frequency><Timestamp dt:dt=""r8"">69569634487</Timestamp><Current dt:dt=""r8"">0</Current><DateUtc dt:dt=""string"">2016-12-23T06:19:22Z</DateUtc></FrequencyChange></FrequencyChanges></Clock>\n",2016-12-23 14:19,84.838,1,850841515,12-23-2016,14:19:22,6:19:22,68,v,,,,5,4,17,,,,,,,,,,,,0,,-999999,54,189887,1,1346,191233,aexppro112,block2,,nv audio/y1_24k.wav
nv,13,1,"<?xml version=""1.0""?>\n<Clock xmlns:dt=""urn:schemas-microsoft-com:datatypes""><Description dt:dt=""string"">E-Prime Primary Realtime Clock</Description><StartTime><Timestamp dt:dt=""int"">0</Timestamp><DateUtc dt:dt=""string"">2016-12-23T06:19:22Z</DateUtc></StartTime><FrequencyChanges><FrequencyChange><Frequency dt:dt=""r8"">3579545</Frequency><Timestamp dt:dt=""r8"">69569634487</Timestamp><Current dt:dt=""r8"">0</Current><DateUtc dt:dt=""string"">2016-12-23T06:19:22Z</DateUtc></FrequencyChange></FrequencyChanges></Clock>\n",2016-12-23 14:19,84.838,1,850841515,12-23-2016,14:19:22,6:19:22,69,u,,,,4,4,18,,,,,,,,,,,,0,,-999999,42,191784,1,425,192209,aexppro112,block2,,nv audio/u1_24k.wav
nv,13,1,"<?xml version=""1.0""?>\n<Clock xmlns:dt=""urn:schemas-microsoft-com:datatypes""><Description dt:dt=""string"">E-Prime Primary Realtime Clock</Description><StartTime><Timestamp dt:dt=""int"">0</Timestamp><DateUtc dt:dt=""string"">2016-12-23T06:19:22Z</DateUtc></StartTime><FrequencyChanges><FrequencyChange><Frequency dt:dt=""r8"">3579545</Frequency><Timestamp dt:dt=""r8"">69569634487</Timestamp><Current dt:dt=""r8"">0</Current><DateUtc dt:dt=""string"">2016-12-23T06:19:22Z</DateUtc></FrequencyChange></FrequencyChanges></Clock>\n",2016-12-23 14:19,84.838,1,850841515,12-23-2016,14:19:22,6:19:22,70,e,,,,2,4,19,,,,,,,,,,,,0,,-999999,42,192763,1,513,193276,aexppro112,block2,,nv audio/e1_24k.wav
nv,13,1,"<?xml version=""1.0""?>\n<Clock xmlns:dt=""urn:schemas-microsoft-com:datatypes""><Description dt:dt=""string"">E-Prime Primary Realtime Clock</Description><StartTime><Timestamp dt:dt=""int"">0</Timestamp><DateUtc dt:dt=""string"">2016-12-23T06:19:22Z</DateUtc></StartTime><FrequencyChanges><FrequencyChange><Frequency dt:dt=""r8"">3579545</Frequency><Timestamp dt:dt=""r8"">69569634487</Timestamp><Current dt:dt=""r8"">0</Current><DateUtc dt:dt=""string"">2016-12-23T06:19:22Z</DateUtc></FrequencyChange></FrequencyChanges></Clock>\n",2016-12-23 14:19,84.838,1,850841515,12-23-2016,14:19:22,6:19:22,71,i,,,,3,4,20,,,,,,,,,,,,0,,-999999,43,193824,1,466,194290,aexppro112,block2,,nv audio/i1_24k.wav
nv,13,1,"<?xml version=""1.0""?>\n<Clock xmlns:dt=""urn:schemas-microsoft-com:datatypes""><Description dt:dt=""string"">E-Prime Primary Realtime Clock</Description><StartTime><Timestamp dt:dt=""int"">0</Timestamp><DateUtc dt:dt=""string"">2016-12-23T06:19:22Z</DateUtc></StartTime><FrequencyChanges><FrequencyChange><Frequency dt:dt=""r8"">3579545</Frequency><Timestamp dt:dt=""r8"">69569634487</Timestamp><Current dt:dt=""r8"">0</Current><DateUtc dt:dt=""string"">2016-12-23T06:19:22Z</DateUtc></FrequencyChange></FrequencyChanges></Clock>\n",2016-12-23 14:19,84.838,1,850841515,12-23-2016,14:19:22,6:19:22,72,v,,,,5,5,21,,,,,,,,,,,,0,,-999999,42,194837,1,694,195531,aexppro112,block2,,nv audio/y1_24k.wav
nv,13,1,"<?xml version=""1.0""?>\n<Clock xmlns:dt=""urn:schemas-microsoft-com:datatypes""><Description dt:dt=""string"">E-Prime Primary Realtime Clock</Description><StartTime><Timestamp dt:dt=""int"">0</Timestamp><DateUtc dt:dt=""string"">2016-12-23T06:19:22Z</DateUtc></StartTime><FrequencyChanges><FrequencyChange><Frequency dt:dt=""r8"">3579545</Frequency><Timestamp dt:dt=""r8"">69569634487</Timestamp><Current dt:dt=""r8"">0</Current><DateUtc dt:dt=""string"">2016-12-23T06:19:22Z</DateUtc></FrequencyChange></FrequencyChanges></Clock>\n",2016-12-23 14:19,84.838,1,850841515,12-23-2016,14:19:22,6:19:22,73,a,,,,1,5,22,,,,,,,,,,,,0,,-999999,42,196075,1,843,196918,aexppro112,block2,,nv audio/a1_24k.wav
nv,13,1,"<?xml version=""1.0""?>\n<Clock xmlns:dt=""urn:schemas-microsoft-com:datatypes""><Description dt:dt=""string"">E-Prime Primary Realtime Clock</Description><StartTime><Timestamp dt:dt=""int"">0</Timestamp><DateUtc dt:dt=""string"">2016-12-23T06:19:22Z</DateUtc></StartTime><FrequencyChanges><FrequencyChange><Frequency dt:dt=""r8"">3579545</Frequency><Timestamp dt:dt=""r8"">69569634487</Timestamp><Current dt:dt=""r8"">0</Current><DateUtc dt:dt=""string"">2016-12-23T06:19:22Z</DateUtc></FrequencyChange></FrequencyChanges></Clock>\n",2016-12-23 14:19,84.838,1,850841515,12-23-2016,14:19:22,6:19:22,74,u,,,,4,5,23,,,,,,,,,,,,0,,-999999,31,197455,1,743,198198,aexppro112,block2,,nv audio/u1_24k.wav
nv,13,1,"<?xml version=""1.0""?>\n<Clock xmlns:dt=""urn:schemas-microsoft-com:datatypes""><Description dt:dt=""string"">E-Prime Primary Realtime Clock</Description><StartTime><Timestamp dt:dt=""int"">0</Timestamp><DateUtc dt:dt=""string"">2016-12-23T06:19:22Z</DateUtc></StartTime><FrequencyChanges><FrequencyChange><Frequency dt:dt=""r8"">3579545</Frequency><Timestamp dt:dt=""r8"">69569634487</Timestamp><Current dt:dt=""r8"">0</Current><DateUtc dt:dt=""string"">2016-12-23T06:19:22Z</DateUtc></FrequencyChange></FrequencyChanges></Clock>\n",2016-12-23 14:19,84.838,1,850841515,12-23-2016,14:19:22,6:19:22,75,e,,,,2,5,24,,,,,,,,,,,,0,,-999999,66,198774,1,681,199455,aexppro112,block2,,nv audio/e1_24k.wav
nv,13,1,"<?xml version=""1.0""?>\n<Clock xmlns:dt=""urn:schemas-microsoft-com:datatypes""><Description dt:dt=""string"">E-Prime Primary Realtime Clock</Description><StartTime><Timestamp dt:dt=""int"">0</Timestamp><DateUtc dt:dt=""string"">2016-12-23T06:19:22Z</DateUtc></StartTime><FrequencyChanges><FrequencyChange><Frequency dt:dt=""r8"">3579545</Frequency><Timestamp dt:dt=""r8"">69569634487</Timestamp><Current dt:dt=""r8"">0</Current><DateUtc dt:dt=""string"">2016-12-23T06:19:22Z</DateUtc></FrequencyChange></FrequencyChanges></Clock>\n",2016-12-23 14:19,84.838,1,850841515,12-23-2016,14:19:22,6:19:22,76,i,,,,3,5,25,,,,,,,,,,,,0,,-999999,66,200024,1,457,200481,aexppro112,block2,,nv audio/i1_24k.wav
nv,13,1,"<?xml version=""1.0""?>\n<Clock xmlns:dt=""urn:schemas-microsoft-com:datatypes""><Description dt:dt=""string"">E-Prime Primary Realtime Clock</Description><StartTime><Timestamp dt:dt=""int"">0</Timestamp><DateUtc dt:dt=""string"">2016-12-23T06:19:22Z</DateUtc></StartTime><FrequencyChanges><FrequencyChange><Frequency dt:dt=""r8"">3579545</Frequency><Timestamp dt:dt=""r8"">69569634487</Timestamp><Current dt:dt=""r8"">0</Current><DateUtc dt:dt=""string"">2016-12-23T06:19:22Z</DateUtc></FrequencyChange></FrequencyChanges></Clock>\n",2016-12-23 14:19,84.838,1,850841515,12-23-2016,14:19:22,6:19:22,77,a,,,,1,6,26,,,,,,,,,,,,0,,-999999,43,201026,1,1022,202048,aexppro112,block2,,nv audio/a1_24k.wav
nv,13,1,"<?xml version=""1.0""?>\n<Clock xmlns:dt=""urn:schemas-microsoft-com:datatypes""><Description dt:dt=""string"">E-Prime Primary Realtime Clock</Description><StartTime><Timestamp dt:dt=""int"">0</Timestamp><DateUtc dt:dt=""string"">2016-12-23T06:19:22Z</DateUtc></StartTime><FrequencyChanges><FrequencyChange><Frequency dt:dt=""r8"">3579545</Frequency><Timestamp dt:dt=""r8"">69569634487</Timestamp><Current dt:dt=""r8"">0</Current><DateUtc dt:dt=""string"">2016-12-23T06:19:22Z</DateUtc></FrequencyChange></FrequencyChanges></Clock>\n",2016-12-23 14:19,84.838,1,850841515,12-23-2016,14:19:22,6:19:22,78,u,,,,4,6,27,,,,,,,,,,,,0,,-999999,66,202617,1,815,203432,aexppro112,block2,,nv audio/u1_24k.wav
nv,13,1,"<?xml version=""1.0""?>\n<Clock xmlns:dt=""urn:schemas-microsoft-com:datatypes""><Description dt:dt=""string"">E-Prime Primary Realtime Clock</Description><StartTime><Timestamp dt:dt=""int"">0</Timestamp><DateUtc dt:dt=""string"">2016-12-23T06:19:22Z</DateUtc></StartTime><FrequencyChanges><FrequencyChange><Frequency dt:dt=""r8"">3579545</Frequency><Timestamp dt:dt=""r8"">69569634487</Timestamp><Current dt:dt=""r8"">0</Current><DateUtc dt:dt=""string"">2016-12-23T06:19:22Z</DateUtc></FrequencyChange></FrequencyChanges></Clock>\n",2016-12-23 14:19,84.838,1,850841515,12-23-2016,14:19:22,6:19:22,79,e,,,,2,6,28,,,,,,,,,,,,0,,-999999,54,203996,1,665,204661,aexppro112,block2,,nv audio/e1_24k.wav
nv,13,1,"<?xml version=""1.0""?>\n<Clock xmlns:dt=""urn:schemas-microsoft-com:datatypes""><Description dt:dt=""string"">E-Prime Primary Realtime Clock</Description><StartTime><Timestamp dt:dt=""int"">0</Timestamp><DateUtc dt:dt=""string"">2016-12-23T06:19:22Z</DateUtc></StartTime><FrequencyChanges><FrequencyChange><Frequency dt:dt=""r8"">3579545</Frequency><Timestamp dt:dt=""r8"">69569634487</Timestamp><Current dt:dt=""r8"">0</Current><DateUtc dt:dt=""string"">2016-12-23T06:19:22Z</DateUtc></FrequencyChange></FrequencyChanges></Clock>\n",2016-12-23 14:19,84.838,1,850841515,12-23-2016,14:19:22,6:19:22,80,v,,,,5,6,29,,,,,,,,,,,,0,,-999999,42,205210,1,666,205876,aexppro112,block2,,nv audio/y1_24k.wav
nv,13,1,"<?xml version=""1.0""?>\n<Clock xmlns:dt=""urn:schemas-microsoft-com:datatypes""><Description dt:dt=""string"">E-Prime Primary Realtime Clock</Description><StartTime><Timestamp dt:dt=""int"">0</Timestamp><DateUtc dt:dt=""string"">2016-12-23T06:19:22Z</DateUtc></StartTime><FrequencyChanges><FrequencyChange><Frequency dt:dt=""r8"">3579545</Frequency><Timestamp dt:dt=""r8"">69569634487</Timestamp><Current dt:dt=""r8"">0</Current><DateUtc dt:dt=""string"">2016-12-23T06:19:22Z</DateUtc></FrequencyChange></FrequencyChanges></Clock>\n",2016-12-23 14:19,84.838,1,850841515,12-23-2016,14:19:22,6:19:22,81,i,,,,3,6,30,,,,,,,,,,,,0,,-999999,66,206448,1,550,206998,aexppro112,block2,,nv audio/i1_24k.wav
nv,13,1,"<?xml version=""1.0""?>\n<Clock xmlns:dt=""urn:schemas-microsoft-com:datatypes""><Description dt:dt=""string"">E-Prime Primary Realtime Clock</Description><StartTime><Timestamp dt:dt=""int"">0</Timestamp><DateUtc dt:dt=""string"">2016-12-23T06:19:22Z</DateUtc></StartTime><FrequencyChanges><FrequencyChange><Frequency dt:dt=""r8"">3579545</Frequency><Timestamp dt:dt=""r8"">69569634487</Timestamp><Current dt:dt=""r8"">0</Current><DateUtc dt:dt=""string"">2016-12-23T06:19:22Z</DateUtc></FrequencyChange></FrequencyChanges></Clock>\n",2016-12-23 14:19,84.838,1,850841515,12-23-2016,14:19:22,6:19:22,82,a,,,,1,7,31,,,,,,,,,,,,0,,-999999,42,207544,1,548,208092,aexppro112,block2,,nv audio/a1_24k.wav
nv,13,1,"<?xml version=""1.0""?>\n<Clock xmlns:dt=""urn:schemas-microsoft-com:datatypes""><Description dt:dt=""string"">E-Prime Primary Realtime Clock</Description><StartTime><Timestamp dt:dt=""int"">0</Timestamp><DateUtc dt:dt=""string"">2016-12-23T06:19:22Z</DateUtc></StartTime><FrequencyChanges><FrequencyChange><Frequency dt:dt=""r8"">3579545</Frequency><Timestamp dt:dt=""r8"">69569634487</Timestamp><Current dt:dt=""r8"">0</Current><DateUtc dt:dt=""string"">2016-12-23T06:19:22Z</DateUtc></FrequencyChange></FrequencyChanges></Clock>\n",2016-12-23 14:19,84.838,1,850841515,12-23-2016,14:19:22,6:19:22,83,v,,,,5,7,32,,,,,,,,,,,,0,,-999999,66,208664,1,906,209570,aexppro112,block2,,nv audio/y1_24k.wav
nv,13,1,"<?xml version=""1.0""?>\n<Clock xmlns:dt=""urn:schemas-microsoft-com:datatypes""><Description dt:dt=""string"">E-Prime Primary Realtime Clock</Description><StartTime><Timestamp dt:dt=""int"">0</Timestamp><DateUtc dt:dt=""string"">2016-12-23T06:19:22Z</DateUtc></StartTime><FrequencyChanges><FrequencyChange><Frequency dt:dt=""r8"">3579545</Frequency><Timestamp dt:dt=""r8"">69569634487</Timestamp><Current dt:dt=""r8"">0</Current><DateUtc dt:dt=""string"">2016-12-23T06:19:22Z</DateUtc></FrequencyChange></FrequencyChanges></Clock>\n",2016-12-23 14:19,84.838,1,850841515,12-23-2016,14:19:22,6:19:22,84,e,,,,2,7,33,,,,,,,,,,,,0,,-999999,42,210113,1,742,210855,aexppro112,block2,,nv audio/e1_24k.wav
nv,13,1,"<?xml version=""1.0""?>\n<Clock xmlns:dt=""urn:schemas-microsoft-com:datatypes""><Description dt:dt=""string"">E-Prime Primary Realtime Clock</Description><StartTime><Timestamp dt:dt=""int"">0</Timestamp><DateUtc dt:dt=""string"">2016-12-23T06:19:22Z</DateUtc></StartTime><FrequencyChanges><FrequencyChange><Frequency dt:dt=""r8"">3579545</Frequency><Timestamp dt:dt=""r8"">69569634487</Timestamp><Current dt:dt=""r8"">0</Current><DateUtc dt:dt=""string"">2016-12-23T06:19:22Z</DateUtc></FrequencyChange></FrequencyChanges></Clock>\n",2016-12-23 14:19,84.838,1,850841515,12-23-2016,14:19:22,6:19:22,85,u,,,,4,7,34,,,,,,,,,,,,0,,-999999,42,211398,1,614,212012,aexppro112,block2,,nv audio/u1_24k.wav
nv,13,1,"<?xml version=""1.0""?>\n<Clock xmlns:dt=""urn:schemas-microsoft-com:datatypes""><Description dt:dt=""string"">E-Prime Primary Realtime Clock</Description><StartTime><Timestamp dt:dt=""int"">0</Timestamp><DateUtc dt:dt=""string"">2016-12-23T06:19:22Z</DateUtc></StartTime><FrequencyChanges><FrequencyChange><Frequency dt:dt=""r8"">3579545</Frequency><Timestamp dt:dt=""r8"">69569634487</Timestamp><Current dt:dt=""r8"">0</Current><DateUtc dt:dt=""string"">2016-12-23T06:19:22Z</DateUtc></FrequencyChange></FrequencyChanges></Clock>\n",2016-12-23 14:19,84.838,1,850841515,12-23-2016,14:19:22,6:19:22,86,i,,,,3,7,35,,,,,,,,,,,,0,,-999999,66,212589,1,688,213277,aexppro112,block2,,nv audio/i1_24k.wav
nv,13,1,"<?xml version=""1.0""?>\n<Clock xmlns:dt=""urn:schemas-microsoft-com:datatypes""><Description dt:dt=""string"">E-Prime Primary Realtime Clock</Description><StartTime><Timestamp dt:dt=""int"">0</Timestamp><DateUtc dt:dt=""string"">2016-12-23T06:19:22Z</DateUtc></StartTime><FrequencyChanges><FrequencyChange><Frequency dt:dt=""r8"">3579545</Frequency><Timestamp dt:dt=""r8"">69569634487</Timestamp><Current dt:dt=""r8"">0</Current><DateUtc dt:dt=""string"">2016-12-23T06:19:22Z</DateUtc></FrequencyChange></FrequencyChanges></Clock>\n",2016-12-23 14:19,84.838,1,850841515,12-23-2016,14:19:22,6:19:22,87,v,,,,5,8,36,,,,,,,,,,,,0,,-999999,31,213815,1,1082,214897,aexppro112,block2,,nv audio/y1_24k.wav
nv,13,1,"<?xml version=""1.0""?>\n<Clock xmlns:dt=""urn:schemas-microsoft-com:datatypes""><Description dt:dt=""string"">E-Prime Primary Realtime Clock</Description><StartTime><Timestamp dt:dt=""int"">0</Timestamp><DateUtc dt:dt=""string"">2016-12-23T06:19:22Z</DateUtc></StartTime><FrequencyChanges><FrequencyChange><Frequency dt:dt=""r8"">3579545</Frequency><Timestamp dt:dt=""r8"">69569634487</Timestamp><Current dt:dt=""r8"">0</Current><DateUtc dt:dt=""string"">2016-12-23T06:19:22Z</DateUtc></FrequencyChange></FrequencyChanges></Clock>\n",2016-12-23 14:19,84.838,1,850841515,12-23-2016,14:19:22,6:19:22,88,e,,,,2,8,37,,,,,,,,,,,,0,,-999999,42,215441,1,924,216365,aexppro112,block2,,nv audio/e1_24k.wav
nv,13,1,"<?xml version=""1.0""?>\n<Clock xmlns:dt=""urn:schemas-microsoft-com:datatypes""><Description dt:dt=""string"">E-Prime Primary Realtime Clock</Description><StartTime><Timestamp dt:dt=""int"">0</Timestamp><DateUtc dt:dt=""string"">2016-12-23T06:19:22Z</DateUtc></StartTime><FrequencyChanges><FrequencyChange><Frequency dt:dt=""r8"">3579545</Frequency><Timestamp dt:dt=""r8"">69569634487</Timestamp><Current dt:dt=""r8"">0</Current><DateUtc dt:dt=""string"">2016-12-23T06:19:22Z</DateUtc></FrequencyChange></FrequencyChanges></Clock>\n",2016-12-23 14:19,84.838,1,850841515,12-23-2016,14:19:22,6:19:22,89,i,,,,3,8,38,,,,,,,,,,,,0,,-999999,43,216915,1,624,217539,aexppro112,block2,,nv audio/i1_24k.wav
nv,13,1,"<?xml version=""1.0""?>\n<Clock xmlns:dt=""urn:schemas-microsoft-com:datatypes""><Description dt:dt=""string"">E-Prime Primary Realtime Clock</Description><StartTime><Timestamp dt:dt=""int"">0</Timestamp><DateUtc dt:dt=""string"">2016-12-23T06:19:22Z</DateUtc></StartTime><FrequencyChanges><FrequencyChange><Frequency dt:dt=""r8"">3579545</Frequency><Timestamp dt:dt=""r8"">69569634487</Timestamp><Current dt:dt=""r8"">0</Current><DateUtc dt:dt=""string"">2016-12-23T06:19:22Z</DateUtc></FrequencyChange></FrequencyChanges></Clock>\n",2016-12-23 14:19,84.838,1,850841515,12-23-2016,14:19:22,6:19:22,90,u,,,,4,8,39,,,,,,,,,,,,0,,-999999,54,218105,1,756,218861,aexppro112,block2,,nv audio/u1_24k.wav
nv,13,1,"<?xml version=""1.0""?>\n<Clock xmlns:dt=""urn:schemas-microsoft-com:datatypes""><Description dt:dt=""string"">E-Prime Primary Realtime Clock</Description><StartTime><Timestamp dt:dt=""int"">0</Timestamp><DateUtc dt:dt=""string"">2016-12-23T06:19:22Z</DateUtc></StartTime><FrequencyChanges><FrequencyChange><Frequency dt:dt=""r8"">3579545</Frequency><Timestamp dt:dt=""r8"">69569634487</Timestamp><Current dt:dt=""r8"">0</Current><DateUtc dt:dt=""string"">2016-12-23T06:19:22Z</DateUtc></FrequencyChange></FrequencyChanges></Clock>\n",2016-12-23 14:19,84.838,1,850841515,12-23-2016,14:19:22,6:19:22,91,a,,,,1,8,40,,,,,,,,,,,,0,,-999999,43,219414,1,792,220206,aexppro112,block2,,nv audio/a1_24k.wav
nv,13,1,"<?xml version=""1.0""?>\n<Clock xmlns:dt=""urn:schemas-microsoft-com:datatypes""><Description dt:dt=""string"">E-Prime Primary Realtime Clock</Description><StartTime><Timestamp dt:dt=""int"">0</Timestamp><DateUtc dt:dt=""string"">2016-12-23T06:19:22Z</DateUtc></StartTime><FrequencyChanges><FrequencyChange><Frequency dt:dt=""r8"">3579545</Frequency><Timestamp dt:dt=""r8"">69569634487</Timestamp><Current dt:dt=""r8"">0</Current><DateUtc dt:dt=""string"">2016-12-23T06:19:22Z</DateUtc></FrequencyChange></FrequencyChanges></Clock>\n",2016-12-23 14:19,84.838,1,850841515,12-23-2016,14:19:22,6:19:22,92,v,,,,5,9,41,,,,,,,,,,,,0,,-999999,42,220757,1,571,221328,aexppro112,block2,,nv audio/y1_24k.wav
nv,13,1,"<?xml version=""1.0""?>\n<Clock xmlns:dt=""urn:schemas-microsoft-com:datatypes""><Description dt:dt=""string"">E-Prime Primary Realtime Clock</Description><StartTime><Timestamp dt:dt=""int"">0</Timestamp><DateUtc dt:dt=""string"">2016-12-23T06:19:22Z</DateUtc></StartTime><FrequencyChanges><FrequencyChange><Frequency dt:dt=""r8"">3579545</Frequency><Timestamp dt:dt=""r8"">69569634487</Timestamp><Current dt:dt=""r8"">0</Current><DateUtc dt:dt=""string"">2016-12-23T06:19:22Z</DateUtc></FrequencyChange></FrequencyChanges></Clock>\n",2016-12-23 14:19,84.838,1,850841515,12-23-2016,14:19:22,6:19:22,93,i,,,,3,9,42,,,,,,,,,,,,0,,-999999,66,221901,1,812,222713,aexppro112,block2,,nv audio/i1_24k.wav
nv,13,1,"<?xml version=""1.0""?>\n<Clock xmlns:dt=""urn:schemas-microsoft-com:datatypes""><Description dt:dt=""string"">E-Prime Primary Realtime Clock</Description><StartTime><Timestamp dt:dt=""int"">0</Timestamp><DateUtc dt:dt=""string"">2016-12-23T06:19:22Z</DateUtc></StartTime><FrequencyChanges><FrequencyChange><Frequency dt:dt=""r8"">3579545</Frequency><Timestamp dt:dt=""r8"">69569634487</Timestamp><Current dt:dt=""r8"">0</Current><DateUtc dt:dt=""string"">2016-12-23T06:19:22Z</DateUtc></FrequencyChange></FrequencyChanges></Clock>\n",2016-12-23 14:19,84.838,1,850841515,12-23-2016,14:19:22,6:19:22,94,a,,,,1,9,43,,,,,,,,,,,,0,,-999999,54,223280,1,739,224019,aexppro112,block2,,nv audio/a1_24k.wav
nv,13,1,"<?xml version=""1.0""?>\n<Clock xmlns:dt=""urn:schemas-microsoft-com:datatypes""><Description dt:dt=""string"">E-Prime Primary Realtime Clock</Description><StartTime><Timestamp dt:dt=""int"">0</Timestamp><DateUtc dt:dt=""string"">2016-12-23T06:19:22Z</DateUtc></StartTime><FrequencyChanges><FrequencyChange><Frequency dt:dt=""r8"">3579545</Frequency><Timestamp dt:dt=""r8"">69569634487</Timestamp><Current dt:dt=""r8"">0</Current><DateUtc dt:dt=""string"">2016-12-23T06:19:22Z</DateUtc></FrequencyChange></FrequencyChanges></Clock>\n",2016-12-23 14:19,84.838,1,850841515,12-23-2016,14:19:22,6:19:22,95,e,,,,2,9,44,,,,,,,,,,,,0,,-999999,42,224564,1,783,225347,aexppro112,block2,,nv audio/e1_24k.wav
nv,13,1,"<?xml version=""1.0""?>\n<Clock xmlns:dt=""urn:schemas-microsoft-com:datatypes""><Description dt:dt=""string"">E-Prime Primary Realtime Clock</Description><StartTime><Timestamp dt:dt=""int"">0</Timestamp><DateUtc dt:dt=""string"">2016-12-23T06:19:22Z</DateUtc></StartTime><FrequencyChanges><FrequencyChange><Frequency dt:dt=""r8"">3579545</Frequency><Timestamp dt:dt=""r8"">69569634487</Timestamp><Current dt:dt=""r8"">0</Current><DateUtc dt:dt=""string"">2016-12-23T06:19:22Z</DateUtc></FrequencyChange></FrequencyChanges></Clock>\n",2016-12-23 14:19,84.838,1,850841515,12-23-2016,14:19:22,6:19:22,96,u,,,,4,9,45,,,,,,,,,,,,0,,-999999,42,225896,1,535,226431,aexppro112,block2,,nv audio/u1_24k.wav
nv,13,1,"<?xml version=""1.0""?>\n<Clock xmlns:dt=""urn:schemas-microsoft-com:datatypes""><Description dt:dt=""string"">E-Prime Primary Realtime Clock</Description><StartTime><Timestamp dt:dt=""int"">0</Timestamp><DateUtc dt:dt=""string"">2016-12-23T06:19:22Z</DateUtc></StartTime><FrequencyChanges><FrequencyChange><Frequency dt:dt=""r8"">3579545</Frequency><Timestamp dt:dt=""r8"">69569634487</Timestamp><Current dt:dt=""r8"">0</Current><DateUtc dt:dt=""string"">2016-12-23T06:19:22Z</DateUtc></FrequencyChange></FrequencyChanges></Clock>\n",2016-12-23 14:19,84.838,1,850841515,12-23-2016,14:19:22,6:19:22,97,e,,,,2,10,46,,,,,,,,,,,,0,,-999999,42,226981,1,1148,228129,aexppro112,block2,,nv audio/e1_24k.wav
nv,13,1,"<?xml version=""1.0""?>\n<Clock xmlns:dt=""urn:schemas-microsoft-com:datatypes""><Description dt:dt=""string"">E-Prime Primary Realtime Clock</Description><StartTime><Timestamp dt:dt=""int"">0</Timestamp><DateUtc dt:dt=""string"">2016-12-23T06:19:22Z</DateUtc></StartTime><FrequencyChanges><FrequencyChange><Frequency dt:dt=""r8"">3579545</Frequency><Timestamp dt:dt=""r8"">69569634487</Timestamp><Current dt:dt=""r8"">0</Current><DateUtc dt:dt=""string"">2016-12-23T06:19:22Z</DateUtc></FrequencyChange></FrequencyChanges></Clock>\n",2016-12-23 14:19,84.838,1,850841515,12-23-2016,14:19:22,6:19:22,98,v,,,,5,10,47,,,,,,,,,,,,0,,-999999,42,228678,1,914,229592,aexppro112,block2,,nv audio/y1_24k.wav
nv,13,1,"<?xml version=""1.0""?>\n<Clock xmlns:dt=""urn:schemas-microsoft-com:datatypes""><Description dt:dt=""string"">E-Prime Primary Realtime Clock</Description><StartTime><Timestamp dt:dt=""int"">0</Timestamp><DateUtc dt:dt=""string"">2016-12-23T06:19:22Z</DateUtc></StartTime><FrequencyChanges><FrequencyChange><Frequency dt:dt=""r8"">3579545</Frequency><Timestamp dt:dt=""r8"">69569634487</Timestamp><Current dt:dt=""r8"">0</Current><DateUtc dt:dt=""string"">2016-12-23T06:19:22Z</DateUtc></FrequencyChange></FrequencyChanges></Clock>\n",2016-12-23 14:19,84.838,1,850841515,12-23-2016,14:19:22,6:19:22,99,a,,,,1,10,48,,,,,,,,,,,,0,,-999999,65,230163,1,978,231141,aexppro112,block2,,nv audio/a1_24k.wav
nv,13,1,"<?xml version=""1.0""?>\n<Clock xmlns:dt=""urn:schemas-microsoft-com:datatypes""><Description dt:dt=""string"">E-Prime Primary Realtime Clock</Description><StartTime><Timestamp dt:dt=""int"">0</Timestamp><DateUtc dt:dt=""string"">2016-12-23T06:19:22Z</DateUtc></StartTime><FrequencyChanges><FrequencyChange><Frequency dt:dt=""r8"">3579545</Frequency><Timestamp dt:dt=""r8"">69569634487</Timestamp><Current dt:dt=""r8"">0</Current><DateUtc dt:dt=""string"">2016-12-23T06:19:22Z</DateUtc></FrequencyChange></FrequencyChanges></Clock>\n",2016-12-23 14:19,84.838,1,850841515,12-23-2016,14:19:22,6:19:22,100,u,,,,4,10,49,,,,,,,,,,,,0,,-999999,42,231684,1,822,232506,aexppro112,block2,,nv audio/u1_24k.wav
nv,13,1,"<?xml version=""1.0""?>\n<Clock xmlns:dt=""urn:schemas-microsoft-com:datatypes""><Description dt:dt=""string"">E-Prime Primary Realtime Clock</Description><StartTime><Timestamp dt:dt=""int"">0</Timestamp><DateUtc dt:dt=""string"">2016-12-23T06:19:22Z</DateUtc></StartTime><FrequencyChanges><FrequencyChange><Frequency dt:dt=""r8"">3579545</Frequency><Timestamp dt:dt=""r8"">69569634487</Timestamp><Current dt:dt=""r8"">0</Current><DateUtc dt:dt=""string"">2016-12-23T06:19:22Z</DateUtc></FrequencyChange></FrequencyChanges></Clock>\n",2016-12-23 14:19,84.838,1,850841515,12-23-2016,14:19:22,6:19:22,101,i,,,,3,10,50,,,,,,,,,,,,0,,-999999,42,233051,1,573,233624,aexppro112,block2,,nv audio/i1_24k.wav
