ExperimentName,Subject,Session,Clock.Information,Clock.StartTimeOfDay,Display.RefreshRate,Group,RandomSeed,SessionDate,SessionTime,SessionTimeUtc,Block,answer1[Block],block1,block1.Cycle,block1.Sample,block2,block2.Cycle,block2.Sample,lx,lx.Cycle,lx.Sample,panel1111.ACC,panel1111.CRESP,panel1111.DurationError,panel1111.OnsetDelay,panel1111.OnsetTime,panel1111.RESP,panel1111.RT,panel1111.RTTime,panel1121.ACC,panel1121.CRESP,panel1121.DurationError,panel1121.OnsetDelay,panel1121.OnsetTime,panel1121.RESP,panel1121.RT,panel1121.RTTime,Procedure[Block],Running[Block],sound111,sound112,Trial,answer1[Trial],lxlist,lxlist.Cycle,lxlist.Sample,lxpanel1.ACC,lxpanel1.CRESP,lxpanel1.DurationError,lxpanel1.OnsetDelay,lxpanel1.OnsetTime,lxpanel1.RESP,lxpanel1.RT,lxpanel1.RTTime,lxsound,Procedure[Trial],Running[Trial]
nv,14,1,"<?xml version=""1.0""?>\n<Clock xmlns:dt=""urn:schemas-microsoft-com:datatypes""><Description dt:dt=""string"">E-Prime Primary Realtime Clock</Description><StartTime><Timestamp dt:dt=""int"">0</Timestamp><DateUtc dt:dt=""string"">2016-12-23T06:24:51Z</DateUtc></StartTime><FrequencyChanges><FrequencyChange><Frequency dt:dt=""r8"">3579545</Frequency><Timestamp dt:dt=""r8"">69942940880</Timestamp><Current dt:dt=""r8"">0</Current><DateUtc dt:dt=""string"">2016-12-23T06:24:51Z</DateUtc></FrequencyChange></FrequencyChanges></Clock>\n",2016-12-23 14:24,74.894,1,1224146608,12-23-2016,14:24:51,6:24:51,1,,,,,,,,1,1,1,,,,,,,,,,,,,,,,,lxProc,lx,,,1,a,1,1,1,0,,-999999,55,32412,1,1183,33595,nv audio/a1_24k.wav,lxpro1,lxlist
nv,14,1,"<?xml version=""1.0""?>\n<Clock xmlns:dt=""urn:schemas-microsoft-com:datatypes""><Description dt:dt=""string"">E-Prime Primary Realtime Clock</Description><StartTime><Timestamp dt:dt=""int"">0</Timestamp><DateUtc dt:dt=""string"">2016-12-23T06:24:51Z</DateUtc></StartTime><FrequencyChanges><FrequencyChange><Frequency dt:dt=""r8"">3579545</Frequency><Timestamp dt:dt=""r8"">69942940880</Timestamp><Current dt:dt=""r8"">0</Current><DateUtc dt:dt=""string"">2016-12-23T06:24:51Z</DateUtc></FrequencyChange></FrequencyChanges></Clock>\n",2016-12-23 14:24,74.894,1,1224146608,12-23-2016,14:24:51,6:24:51,1,,,,,,,,1,1,1,,,,,,,,,,,,,,,,,lxProc,lx,,,2,u,4,1,2,0,,-999999,20,34121,1,1217,35338,nv audio/u1_24k.wav,lxpro1,lxlist
nv,14,1,"<?xml version=""1.0""?>\n<Clock xmlns:dt=""urn:schemas-microsoft-com:datatypes""><Description dt:dt=""string"">E-Prime Primary Realtime Clock</Description><StartTime><Timestamp dt:dt=""int"">0</Timestamp><DateUtc dt:dt=""string"">2016-12-23T06:24:51Z</DateUtc></StartTime><FrequencyChanges><FrequencyChange><Frequency dt:dt=""r8"">3579545</Frequency><Timestamp dt:dt=""r8"">69942940880</Timestamp><Current dt:dt=""r8"">0</Current><DateUtc dt:dt=""string"">2016-12-23T06:24:51Z</DateUtc></FrequencyChange></FrequencyChanges></Clock>\n",2016-12-23 14:24,74.894,1,1224146608,12-23-2016,14:24:51,6:24:51,1,,,,,,,,1,1,1,,,,,,,,,,,,,,,,,lxProc,lx,,,3,v,5,1,3,0,,-999999,21,35871,1,1210,37081,nv audio/y1_24k.wav,lxpro1,lxlist
nv,14,1,"<?xml version=""1.0""?>\n<Clock xmlns:dt=""urn:schemas-microsoft-com:datatypes""><Description dt:dt=""string"">E-Prime Primary Realtime Clock</Description><StartTime><Timestamp dt:dt=""int"">0</Timestamp><DateUtc dt:dt=""string"">2016-12-23T06:24:51Z</DateUtc></StartTime><FrequencyChanges><FrequencyChange><Frequency dt:dt=""r8"">3579545</Frequency><Timestamp dt:dt=""r8"">69942940880</Timestamp><Current dt:dt=""r8"">0</Current><DateUtc dt:dt=""string"">2016-12-23T06:24:51Z</DateUtc></FrequencyChange></FrequencyChanges></Clock>\n",2016-12-23 14:24,74.894,1,1224146608,12-23-2016,14:24:51,6:24:51,1,,,,,,,,1,1,1,,,,,,,,,,,,,,,,,lxProc,lx,,,4,e,2,1,4,0,,-999999,20,37606,1,1774,39380,nv audio/e1_24k.wav,lxpro1,lxlist
nv,14,1,"<?xml version=""1.0""?>\n<Clock xmlns:dt=""urn:schemas-microsoft-com:datatypes""><Description dt:dt=""string"">E-Prime Primary Realtime Clock</Description><StartTime><Timestamp dt:dt=""int"">0</Timestamp><DateUtc dt:dt=""string"">2016-12-23T06:24:51Z</DateUtc></StartTime><FrequencyChanges><FrequencyChange><Frequency dt:dt=""r8"">3579545</Frequency><Timestamp dt:dt=""r8"">69942940880</Timestamp><Current dt:dt=""r8"">0</Current><DateUtc dt:dt=""string"">2016-12-23T06:24:51Z</DateUtc></FrequencyChange></FrequencyChanges></Clock>\n",2016-12-23 14:24,74.894,1,1224146608,12-23-2016,14:24:51,6:24:51,1,,,,,,,,1,1,1,,,,,,,,,,,,,,,,,lxProc,lx,,,5,i,3,1,5,0,,-999999,21,39903,1,588,40491,nv audio/i1_24k.wav,lxpro1,lxlist
nv,14,1,"<?xml version=""1.0""?>\n<Clock xmlns:dt=""urn:schemas-microsoft-com:datatypes""><Description dt:dt=""string"">E-Prime Primary Realtime Clock</Description><StartTime><Timestamp dt:dt=""int"">0</Timestamp><DateUtc dt:dt=""string"">2016-12-23T06:24:51Z</DateUtc></StartTime><FrequencyChanges><FrequencyChange><Frequency dt:dt=""r8"">3579545</Frequency><Timestamp dt:dt=""r8"">69942940880</Timestamp><Current dt:dt=""r8"">0</Current><DateUtc dt:dt=""string"">2016-12-23T06:24:51Z</DateUtc></FrequencyChange></FrequencyChanges></Clock>\n",2016-12-23 14:24,74.894,1,1224146608,12-23-2016,14:24:51,6:24:51,1,,,,,,,,1,1,1,,,,,,,,,,,,,,,,,lxProc,lx,,,6,a,1,2,6,0,,-999999,34,41038,1,837,41875,nv audio/a1_24k.wav,lxpro1,lxlist
nv,14,1,"<?xml version=""1.0""?>\n<Clock xmlns:dt=""urn:schemas-microsoft-com:datatypes""><Description dt:dt=""string"">E-Prime Primary Realtime Clock</Description><StartTime><Timestamp dt:dt=""int"">0</Timestamp><DateUtc dt:dt=""string"">2016-12-23T06:24:51Z</DateUtc></StartTime><FrequencyChanges><FrequencyChange><Frequency dt:dt=""r8"">3579545</Frequency><Timestamp dt:dt=""r8"">69942940880</Timestamp><Current dt:dt=""r8"">0</Current><DateUtc dt:dt=""string"">2016-12-23T06:24:51Z</DateUtc></FrequencyChange></FrequencyChanges></Clock>\n",2016-12-23 14:24,74.894,1,1224146608,12-23-2016,14:24:51,6:24:51,1,,,,,,,,1,1,1,,,,,,,,,,,,,,,,,lxProc,lx,,,7,u,4,2,7,0,,-999999,21,42400,1,772,43172,nv audio/u1_24k.wav,lxpro1,lxlist
nv,14,1,"<?xml version=""1.0""?>\n<Clock xmlns:dt=""urn:schemas-microsoft-com:datatypes""><Description dt:dt=""string"">E-Prime Primary Realtime Clock</Description><StartTime><Timestamp dt:dt=""int"">0</Timestamp><DateUtc dt:dt=""string"">2016-12-23T06:24:51Z</DateUtc></StartTime><FrequencyChanges><FrequencyChange><Frequency dt:dt=""r8"">3579545</Frequency><Timestamp dt:dt=""r8"">69942940880</Timestamp><Current dt:dt=""r8"">0</Current><DateUtc dt:dt=""string"">2016-12-23T06:24:51Z</DateUtc></FrequencyChange></FrequencyChanges></Clock>\n",2016-12-23 14:24,74.894,1,1224146608,12-23-2016,14:24:51,6:24:51,1,,,,,,,,1,1,1,,,,,,,,,,,,,,,,,lxProc,lx,,,8,v,5,2,8,0,,-999999,21,43695,1,936,44631,nv audio/y1_24k.wav,lxpro1,lxlist
nv,14,1,"<?xml version=""1.0""?>\n<Clock xmlns:dt=""urn:schemas-microsoft-com:datatypes""><Description dt:dt=""string"">E-Prime Primary Realtime Clock</Description><StartTime><Timestamp dt:dt=""int"">0</Timestamp><DateUtc dt:dt=""string"">2016-12-23T06:24:51Z</DateUtc></StartTime><FrequencyChanges><FrequencyChange><Frequency dt:dt=""r8"">3579545</Frequency><Timestamp dt:dt=""r8"">69942940880</Timestamp><Current dt:dt=""r8"">0</Current><DateUtc dt:dt=""string"">2016-12-23T06:24:51Z</DateUtc></FrequencyChange></FrequencyChanges></Clock>\n",2016-12-23 14:24,74.894,1,1224146608,12-23-2016,14:24:51,6:24:51,1,,,,,,,,1,1,1,,,,,,,,,,,,,,,,,lxProc,lx,,,9,i,3,2,9,0,,-999999,21,45164,1,599,45763,nv audio/i1_24k.wav,lxpro1,lxlist
nv,14,1,"<?xml version=""1.0""?>\n<Clock xmlns:dt=""urn:schemas-microsoft-com:datatypes""><Description dt:dt=""string"">E-Prime Primary Realtime Clock</Description><StartTime><Timestamp dt:dt=""int"">0</Timestamp><DateUtc dt:dt=""string"">2016-12-23T06:24:51Z</DateUtc></StartTime><FrequencyChanges><FrequencyChange><Frequency dt:dt=""r8"">3579545</Frequency><Timestamp dt:dt=""r8"">69942940880</Timestamp><Current dt:dt=""r8"">0</Current><DateUtc dt:dt=""string"">2016-12-23T06:24:51Z</DateUtc></FrequencyChange></FrequencyChanges></Clock>\n",2016-12-23 14:24,74.894,1,1224146608,12-23-2016,14:24:51,6:24:51,1,,,,,,,,1,1,1,,,,,,,,,,,,,,,,,lxProc,lx,,,10,e,2,2,10,0,,-999999,21,46285,1,1228,47513,nv audio/e1_24k.wav,lxpro1,lxlist
nv,14,1,"<?xml version=""1.0""?>\n<Clock xmlns:dt=""urn:schemas-microsoft-com:datatypes""><Description dt:dt=""string"">E-Prime Primary Realtime Clock</Description><StartTime><Timestamp dt:dt=""int"">0</Timestamp><DateUtc dt:dt=""string"">2016-12-23T06:24:51Z</DateUtc></StartTime><FrequencyChanges><FrequencyChange><Frequency dt:dt=""r8"">3579545</Frequency><Timestamp dt:dt=""r8"">69942940880</Timestamp><Current dt:dt=""r8"">0</Current><DateUtc dt:dt=""string"">2016-12-23T06:24:51Z</DateUtc></FrequencyChange></FrequencyChanges></Clock>\n",2016-12-23 14:24,74.894,1,1224146608,12-23-2016,14:24:51,6:24:51,2,a,1,1,1,,,,,,,0,,-999999,40,50825,1,916,51741,,,,,,,,,aexppro111,block1,nv audio/a1_24k.wav,,,,,,,,,,,,,,,,,
nv,14,1,"<?xml version=""1.0""?>\n<Clock xmlns:dt=""urn:schemas-microsoft-com:datatypes""><Description dt:dt=""string"">E-Prime Primary Realtime Clock</Description><StartTime><Timestamp dt:dt=""int"">0</Timestamp><DateUtc dt:dt=""string"">2016-12-23T06:24:51Z</DateUtc></StartTime><FrequencyChanges><FrequencyChange><Frequency dt:dt=""r8"">3579545</Frequency><Timestamp dt:dt=""r8"">69942940880</Timestamp><Current dt:dt=""r8"">0</Current><DateUtc dt:dt=""string"">2016-12-23T06:24:51Z</DateUtc></FrequencyChange></FrequencyChanges></Clock>\n",2016-12-23 14:24,74.894,1,1224146608,12-23-2016,14:24:51,6:24:51,3,i,3,1,2,,,,,,,0,,-999999,34,52280,1,523,52803,,,,,,,,,aexppro111,block1,nv audio/i1_24k.wav,,,,,,,,,,,,,,,,,
nv,14,1,"<?xml version=""1.0""?>\n<Clock xmlns:dt=""urn:schemas-microsoft-com:datatypes""><Description dt:dt=""string"">E-Prime Primary Realtime Clock</Description><StartTime><Timestamp dt:dt=""int"">0</Timestamp><DateUtc dt:dt=""string"">2016-12-23T06:24:51Z</DateUtc></StartTime><FrequencyChanges><FrequencyChange><Frequency dt:dt=""r8"">3579545</Frequency><Timestamp dt:dt=""r8"">69942940880</Timestamp><Current dt:dt=""r8"">0</Current><DateUtc dt:dt=""string"">2016-12-23T06:24:51Z</DateUtc></FrequencyChange></FrequencyChanges></Clock>\n",2016-12-23 14:24,74.894,1,1224146608,12-23-2016,14:24:51,6:24:51,4,u,4,1,3,,,,,,,0,,-999999,21,53335,1,623,53958,,,,,,,,,aexppro111,block1,nv audio/u1_24k.wav,,,,,,,,,,,,,,,,,
nv,14,1,"<?xml version=""1.0""?>\n<Clock xmlns:dt=""urn:schemas-microsoft-com:datatypes""><Description dt:dt=""string"">E-Prime Primary Realtime Clock</Description><StartTime><Timestamp dt:dt=""int"">0</Timestamp><DateUtc dt:dt=""string"">2016-12-23T06:24:51Z</DateUtc></StartTime><FrequencyChanges><FrequencyChange><Frequency dt:dt=""r8"">3579545</Frequency><Timestamp dt:dt=""r8"">69942940880</Timestamp><Current dt:dt=""r8"">0</Current><DateUtc dt:dt=""string"">2016-12-23T06:24:51Z</DateUtc></FrequencyChange></FrequencyChanges></Clock>\n",2016-12-23 14:24,74.894,1,1224146608,12-23-2016,14:24:51,6:24:51,5,v,5,1,4,,,,,,,0,,-999999,34,54497,1,817,55314,,,,,,,,,aexppro111,block1,nv audio/y1_24k.wav,,,,,,,,,,,,,,,,,
nv,14,1,"<?xml version=""1.0""?>\n<Clock xmlns:dt=""urn:schemas-microsoft-com:datatypes""><Description dt:dt=""string"">E-Prime Primary Realtime Clock</Description><StartTime><Timestamp dt:dt=""int"">0</Timestamp><DateUtc dt:dt=""string"">2016-12-23T06:24:51Z</DateUtc></StartTime><FrequencyChanges><FrequencyChange><Frequency dt:dt=""r8"">3579545</Frequency><Timestamp dt:dt=""r8"">69942940880</Timestamp><Current dt:dt=""r8"">0</Current><DateUtc dt:dt=""string"">2016-12-23T06:24:51Z</DateUtc></FrequencyChange></FrequencyChanges></Clock>\n",2016-12-23 14:24,74.894,1,1224146608,12-23-2016,14:24:51,6:24:51,6,e,2,1,5,,,,,,,0,,-999999,34,55859,1,1215,57074,,,,,,,,,aexppro111,block1,nv audio/e1_24k.wav,,,,,,,,,,,,,,,,,
nv,14,1,"<?xml version=""1.0""?>\n<Clock xmlns:dt=""urn:schemas-microsoft-com:datatypes""><Description dt:dt=""string"">E-Prime Primary Realtime Clock</Description><StartTime><Timestamp dt:dt=""int"">0</Timestamp><DateUtc dt:dt=""string"">2016-12-23T06:24:51Z</DateUtc></StartTime><FrequencyChanges><FrequencyChange><Frequency dt:dt=""r8"">3579545</Frequency><Timestamp dt:dt=""r8"">69942940880</Timestamp><Current dt:dt=""r8"">0</Current><DateUtc dt:dt=""string"">2016-12-23T06:24:51Z</DateUtc></FrequencyChange></FrequencyChanges></Clock>\n",2016-12-23 14:24,74.894,1,1224146608,12-23-2016,14:24:51,6:24:51,7,e,2,2,6,,,,,,,0,,-999999,21,57608,1,534,58142,,,,,,,,,aexppro111,block1,nv audio/e1_24k.wav
nv,14,1,"<?xml version=""1.0""?>\n<Clock xmlns:dt=""urn:schemas-microsoft-com:datatypes""><Description dt:dt=""string"">E-Prime Primary Realtime Clock</Description><StartTime><Timestamp dt:dt=""int"">0</Timestamp><DateUtc dt:dt=""string"">2016-12-23T06:24:51Z</DateUtc></StartTime><FrequencyChanges><FrequencyChange><Frequency dt:dt=""r8"">3579545</Frequency><Timestamp dt:dt=""r8"">69942940880</Timestamp><Current dt:dt=""r8"">0</Current><DateUtc dt:dt=""string"">2016-12-23T06:24:51Z</DateUtc></FrequencyChange></FrequencyChanges></Clock>\n",2016-12-23 14:24,74.894,1,1224146608,12-23-2016,14:24:51,6:24:51,8,u,4,2,7,,,,,,,0,,-999999,21,58676,1,630,59306,,,,,,,,,aexppro111,block1,nv audio/u1_24k.wav
nv,14,1,"<?xml version=""1.0""?>\n<Clock xmlns:dt=""urn:schemas-microsoft-com:datatypes""><Description dt:dt=""string"">E-Prime Primary Realtime Clock</Description><StartTime><Timestamp dt:dt=""int"">0</Timestamp><DateUtc dt:dt=""string"">2016-12-23T06:24:51Z</DateUtc></StartTime><FrequencyChanges><FrequencyChange><Frequency dt:dt=""r8"">3579545</Frequency><Timestamp dt:dt=""r8"">69942940880</Timestamp><Current dt:dt=""r8"">0</Current><DateUtc dt:dt=""string"">2016-12-23T06:24:51Z</DateUtc></FrequencyChange></FrequencyChanges></Clock>\n",2016-12-23 14:24,74.894,1,1224146608,12-23-2016,14:24:51,6:24:51,9,i,3,2,8,,,,,,,0,,-999999,21,59838,1,479,60317,,,,,,,,,aexppro111,block1,nv audio/i1_24k.wav
nv,14,1,"<?xml version=""1.0""?>\n<Clock xmlns:dt=""urn:schemas-microsoft-com:datatypes""><Description dt:dt=""string"">E-Prime Primary Realtime Clock</Description><StartTime><Timestamp dt:dt=""int"">0</Timestamp><DateUtc dt:dt=""string"">2016-12-23T06:24:51Z</DateUtc></StartTime><FrequencyChanges><FrequencyChange><Frequency dt:dt=""r8"">3579545</Frequency><Timestamp dt:dt=""r8"">69942940880</Timestamp><Current dt:dt=""r8"">0</Current><DateUtc dt:dt=""string"">2016-12-23T06:24:51Z</DateUtc></FrequencyChange></FrequencyChanges></Clock>\n",2016-12-23 14:24,74.894,1,1224146608,12-23-2016,14:24:51,6:24:51,10,a,1,2,9,,,,,,,0,,-999999,20,60839,1,741,61580,,,,,,,,,aexppro111,block1,nv audio/a1_24k.wav
nv,14,1,"<?xml version=""1.0""?>\n<Clock xmlns:dt=""urn:schemas-microsoft-com:datatypes""><Description dt:dt=""string"">E-Prime Primary Realtime Clock</Description><StartTime><Timestamp dt:dt=""int"">0</Timestamp><DateUtc dt:dt=""string"">2016-12-23T06:24:51Z</DateUtc></StartTime><FrequencyChanges><FrequencyChange><Frequency dt:dt=""r8"">3579545</Frequency><Timestamp dt:dt=""r8"">69942940880</Timestamp><Current dt:dt=""r8"">0</Current><DateUtc dt:dt=""string"">2016-12-23T06:24:51Z</DateUtc></FrequencyChange></FrequencyChanges></Clock>\n",2016-12-23 14:24,74.894,1,1224146608,12-23-2016,14:24:51,6:24:51,11,v,5,2,10,,,,,,,0,,-999999,21,62108,1,1444,63552,,,,,,,,,aexppro111,block1,nv audio/y1_24k.wav
nv,14,1,"<?xml version=""1.0""?>\n<Clock xmlns:dt=""urn:schemas-microsoft-com:datatypes""><Description dt:dt=""string"">E-Prime Primary Realtime Clock</Description><StartTime><Timestamp dt:dt=""int"">0</Timestamp><DateUtc dt:dt=""string"">2016-12-23T06:24:51Z</DateUtc></StartTime><FrequencyChanges><FrequencyChange><Frequency dt:dt=""r8"">3579545</Frequency><Timestamp dt:dt=""r8"">69942940880</Timestamp><Current dt:dt=""r8"">0</Current><DateUtc dt:dt=""string"">2016-12-23T06:24:51Z</DateUtc></FrequencyChange></FrequencyChanges></Clock>\n",2016-12-23 14:24,74.894,1,1224146608,12-23-2016,14:24:51,6:24:51,12,v,5,3,11,,,,,,,0,,-999999,21,64084,1,530,64614,,,,,,,,,aexppro111,block1,nv audio/y1_24k.wav
nv,14,1,"<?xml version=""1.0""?>\n<Clock xmlns:dt=""urn:schemas-microsoft-com:datatypes""><Description dt:dt=""string"">E-Prime Primary Realtime Clock</Description><StartTime><Timestamp dt:dt=""int"">0</Timestamp><DateUtc dt:dt=""string"">2016-12-23T06:24:51Z</DateUtc></StartTime><FrequencyChanges><FrequencyChange><Frequency dt:dt=""r8"">3579545</Frequency><Timestamp dt:dt=""r8"">69942940880</Timestamp><Current dt:dt=""r8"">0</Current><DateUtc dt:dt=""string"">2016-12-23T06:24:51Z</DateUtc></FrequencyChange></FrequencyChanges></Clock>\n",2016-12-23 14:24,74.894,1,1224146608,12-23-2016,14:24:51,6:24:51,13,i,3,3,12,,,,,,,0,,-999999,20,65138,1,647,65785,,,,,,,,,aexppro111,block1,nv audio/i1_24k.wav
nv,14,1,"<?xml version=""1.0""?>\n<Clock xmlns:dt=""urn:schemas-microsoft-com:datatypes""><Description dt:dt=""string"">E-Prime Primary Realtime Clock</Description><StartTime><Timestamp dt:dt=""int"">0</Timestamp><DateUtc dt:dt=""string"">2016-12-23T06:24:51Z</DateUtc></StartTime><FrequencyChanges><FrequencyChange><Frequency dt:dt=""r8"">3579545</Frequency><Timestamp dt:dt=""r8"">69942940880</Timestamp><Current dt:dt=""r8"">0</Current><DateUtc dt:dt=""string"">2016-12-23T06:24:51Z</DateUtc></FrequencyChange></FrequencyChanges></Clock>\n",2016-12-23 14:24,74.894,1,1224146608,12-23-2016,14:24:51,6:24:51,14,e,2,3,13,,,,,,,0,,-999999,47,66340,1,727,67067,,,,,,,,,aexppro111,block1,nv audio/e1_24k.wav
nv,14,1,"<?xml version=""1.0""?>\n<Clock xmlns:dt=""urn:schemas-microsoft-com:datatypes""><Description dt:dt=""string"">E-Prime Primary Realtime Clock</Description><StartTime><Timestamp dt:dt=""int"">0</Timestamp><DateUtc dt:dt=""string"">2016-12-23T06:24:51Z</DateUtc></StartTime><FrequencyChanges><FrequencyChange><Frequency dt:dt=""r8"">3579545</Frequency><Timestamp dt:dt=""r8"">69942940880</Timestamp><Current dt:dt=""r8"">0</Current><DateUtc dt:dt=""string"">2016-12-23T06:24:51Z</DateUtc></FrequencyChange></FrequencyChanges></Clock>\n",2016-12-23 14:24,74.894,1,1224146608,12-23-2016,14:24:51,6:24:51,15,u,4,3,14,,,,,,,0,,-999999,34,67609,1,660,68269,,,,,,,,,aexppro111,block1,nv audio/u1_24k.wav
nv,14,1,"<?xml version=""1.0""?>\n<Clock xmlns:dt=""urn:schemas-microsoft-com:datatypes""><Description dt:dt=""string"">E-Prime Primary Realtime Clock</Description><StartTime><Timestamp dt:dt=""int"">0</Timestamp><DateUtc dt:dt=""string"">2016-12-23T06:24:51Z</DateUtc></StartTime><FrequencyChanges><FrequencyChange><Frequency dt:dt=""r8"">3579545</Frequency><Timestamp dt:dt=""r8"">69942940880</Timestamp><Current dt:dt=""r8"">0</Current><DateUtc dt:dt=""string"">2016-12-23T06:24:51Z</DateUtc></FrequencyChange></FrequencyChanges></Clock>\n",2016-12-23 14:24,74.894,1,1224146608,12-23-2016,14:24:51,6:24:51,16,a,1,3,15,,,,,,,0,,-999999,21,68797,1,890,69687,,,,,,,,,aexppro111,block1,nv audio/a1_24k.wav
nv,14,1,"<?xml version=""1.0""?>\n<Clock xmlns:dt=""urn:schemas-microsoft-com:datatypes""><Description dt:dt=""string"">E-Prime Primary Realtime Clock</Description><StartTime><Timestamp dt:dt=""int"">0</Timestamp><DateUtc dt:dt=""string"">2016-12-23T06:24:51Z</DateUtc></StartTime><FrequencyChanges><FrequencyChange><Frequency dt:dt=""r8"">3579545</Frequency><Timestamp dt:dt=""r8"">69942940880</Timestamp><Current dt:dt=""r8"">0</Current><DateUtc dt:dt=""string"">2016-12-23T06:24:51Z</DateUtc></FrequencyChange></FrequencyChanges></Clock>\n",2016-12-23 14:24,74.894,1,1224146608,12-23-2016,14:24:51,6:24:51,17,i,3,4,16,,,,,,,0,,-999999,20,70212,1,502,70714,,,,,,,,,aexppro111,block1,nv audio/i1_24k.wav
nv,14,1,"<?xml version=""1.0""?>\n<Clock xmlns:dt=""urn:schemas-microsoft-com:datatypes""><Description dt:dt=""string"">E-Prime Primary Realtime Clock</Description><StartTime><Timestamp dt:dt=""int"">0</Timestamp><DateUtc dt:dt=""string"">2016-12-23T06:24:51Z</DateUtc></StartTime><FrequencyChanges><FrequencyChange><Frequency dt:dt=""r8"">3579545</Frequency><Timestamp dt:dt=""r8"">69942940880</Timestamp><Current dt:dt=""r8"">0</Current><DateUtc dt:dt=""string"">2016-12-23T06:24:51Z</DateUtc></FrequencyChange></FrequencyChanges></Clock>\n",2016-12-23 14:24,74.894,1,1224146608,12-23-2016,14:24:51,6:24:51,18,v,5,4,17,,,,,,,0,,-999999,20,71240,1,1068,72308,,,,,,,,,aexppro111,block1,nv audio/y1_24k.wav
nv,14,1,"<?xml version=""1.0""?>\n<Clock xmlns:dt=""urn:schemas-microsoft-com:datatypes""><Description dt:dt=""string"">E-Prime Primary Realtime Clock</Description><StartTime><Timestamp dt:dt=""int"">0</Timestamp><DateUtc dt:dt=""string"">2016-12-23T06:24:51Z</DateUtc></StartTime><FrequencyChanges><FrequencyChange><Frequency dt:dt=""r8"">3579545</Frequency><Timestamp dt:dt=""r8"">69942940880</Timestamp><Current dt:dt=""r8"">0</Current><DateUtc dt:dt=""string"">2016-12-23T06:24:51Z</DateUtc></FrequencyChange></FrequencyChanges></Clock>\n",2016-12-23 14:24,74.894,1,1224146608,12-23-2016,14:24:51,6:24:51,19,a,1,4,18,,,,,,,0,,-999999,21,72843,1,816,73659,,,,,,,,,aexppro111,block1,nv audio/a1_24k.wav
nv,14,1,"<?xml version=""1.0""?>\n<Clock xmlns:dt=""urn:schemas-microsoft-com:datatypes""><Description dt:dt=""string"">E-Prime Primary Realtime Clock</Description><StartTime><Timestamp dt:dt=""int"">0</Timestamp><DateUtc dt:dt=""string"">2016-12-23T06:24:51Z</DateUtc></StartTime><FrequencyChanges><FrequencyChange><Frequency dt:dt=""r8"">3579545</Frequency><Timestamp dt:dt=""r8"">69942940880</Timestamp><Current dt:dt=""r8"">0</Current><DateUtc dt:dt=""string"">2016-12-23T06:24:51Z</DateUtc></FrequencyChange></FrequencyChanges></Clock>\n",2016-12-23 14:24,74.894,1,1224146608,12-23-2016,14:24:51,6:24:51,20,e,2,4,19,,,,,,,0,,-999999,21,74191,1,1441,75632,,,,,,,,,aexppro111,block1,nv audio/e1_24k.wav
nv,14,1,"<?xml version=""1.0""?>\n<Clock xmlns:dt=""urn:schemas-microsoft-com:datatypes""><Description dt:dt=""string"">E-Prime Primary Realtime Clock</Description><StartTime><Timestamp dt:dt=""int"">0</Timestamp><DateUtc dt:dt=""string"">2016-12-23T06:24:51Z</DateUtc></StartTime><FrequencyChanges><FrequencyChange><Frequency dt:dt=""r8"">3579545</Frequency><Timestamp dt:dt=""r8"">69942940880</Timestamp><Current dt:dt=""r8"">0</Current><DateUtc dt:dt=""string"">2016-12-23T06:24:51Z</DateUtc></FrequencyChange></FrequencyChanges></Clock>\n",2016-12-23 14:24,74.894,1,1224146608,12-23-2016,14:24:51,6:24:51,21,u,4,4,20,,,,,,,0,,-999999,20,76167,1,609,76776,,,,,,,,,aexppro111,block1,nv audio/u1_24k.wav
nv,14,1,"<?xml version=""1.0""?>\n<Clock xmlns:dt=""urn:schemas-microsoft-com:datatypes""><Description dt:dt=""string"">E-Prime Primary Realtime Clock</Description><StartTime><Timestamp dt:dt=""int"">0</Timestamp><DateUtc dt:dt=""string"">2016-12-23T06:24:51Z</DateUtc></StartTime><FrequencyChanges><FrequencyChange><Frequency dt:dt=""r8"">3579545</Frequency><Timestamp dt:dt=""r8"">69942940880</Timestamp><Current dt:dt=""r8"">0</Current><DateUtc dt:dt=""string"">2016-12-23T06:24:51Z</DateUtc></FrequencyChange></FrequencyChanges></Clock>\n",2016-12-23 14:24,74.894,1,1224146608,12-23-2016,14:24:51,6:24:51,22,i,3,5,21,,,,,,,0,,-999999,20,77302,1,587,77889,,,,,,,,,aexppro111,block1,nv audio/i1_24k.wav
nv,14,1,"<?xml version=""1.0""?>\n<Clock xmlns:dt=""urn:schemas-microsoft-com:datatypes""><Description dt:dt=""string"">E-Prime Primary Realtime Clock</Description><StartTime><Timestamp dt:dt=""int"">0</Timestamp><DateUtc dt:dt=""string"">2016-12-23T06:24:51Z</DateUtc></StartTime><FrequencyChanges><FrequencyChange><Frequency dt:dt=""r8"">3579545</Frequency><Timestamp dt:dt=""r8"">69942940880</Timestamp><Current dt:dt=""r8"">0</Current><DateUtc dt:dt=""string"">2016-12-23T06:24:51Z</DateUtc></FrequencyChange></FrequencyChanges></Clock>\n",2016-12-23 14:24,74.894,1,1224146608,12-23-2016,14:24:51,6:24:51,23,v,5,5,22,,,,,,,0,,-999999,34,78437,1,1109,79546,,,,,,,,,aexppro111,block1,nv audio/y1_24k.wav
nv,14,1,"<?xml version=""1.0""?>\n<Clock xmlns:dt=""urn:schemas-microsoft-com:datatypes""><Description dt:dt=""string"">E-Prime Primary Realtime Clock</Description><StartTime><Timestamp dt:dt=""int"">0</Timestamp><DateUtc dt:dt=""string"">2016-12-23T06:24:51Z</DateUtc></StartTime><FrequencyChanges><FrequencyChange><Frequency dt:dt=""r8"">3579545</Frequency><Timestamp dt:dt=""r8"">69942940880</Timestamp><Current dt:dt=""r8"">0</Current><DateUtc dt:dt=""string"">2016-12-23T06:24:51Z</DateUtc></FrequencyChange></FrequencyChanges></Clock>\n",2016-12-23 14:24,74.894,1,1224146608,12-23-2016,14:24:51,6:24:51,24,e,2,5,23,,,,,,,0,,-999999,34,80093,1,849,80942,,,,,,,,,aexppro111,block1,nv audio/e1_24k.wav
nv,14,1,"<?xml version=""1.0""?>\n<Clock xmlns:dt=""urn:schemas-microsoft-com:datatypes""><Description dt:dt=""string"">E-Prime Primary Realtime Clock</Description><StartTime><Timestamp dt:dt=""int"">0</Timestamp><DateUtc dt:dt=""string"">2016-12-23T06:24:51Z</DateUtc></StartTime><FrequencyChanges><FrequencyChange><Frequency dt:dt=""r8"">3579545</Frequency><Timestamp dt:dt=""r8"">69942940880</Timestamp><Current dt:dt=""r8"">0</Current><DateUtc dt:dt=""string"">2016-12-23T06:24:51Z</DateUtc></FrequencyChange></FrequencyChanges></Clock>\n",2016-12-23 14:24,74.894,1,1224146608,12-23-2016,14:24:51,6:24:51,25,a,1,5,24,,,,,,,0,,-999999,21,81468,1,680,82148,,,,,,,,,aexppro111,block1,nv audio/a1_24k.wav
nv,14,1,"<?xml version=""1.0""?>\n<Clock xmlns:dt=""urn:schemas-microsoft-com:datatypes""><Description dt:dt=""string"">E-Prime Primary Realtime Clock</Description><StartTime><Timestamp dt:dt=""int"">0</Timestamp><DateUtc dt:dt=""string"">2016-12-23T06:24:51Z</DateUtc></StartTime><FrequencyChanges><FrequencyChange><Frequency dt:dt=""r8"">3579545</Frequency><Timestamp dt:dt=""r8"">69942940880</Timestamp><Current dt:dt=""r8"">0</Current><DateUtc dt:dt=""string"">2016-12-23T06:24:51Z</DateUtc></FrequencyChange></FrequencyChanges></Clock>\n",2016-12-23 14:24,74.894,1,1224146608,12-23-2016,14:24:51,6:24:51,26,u,4,5,25,,,,,,,0,,-999999,21,82683,1,687,83370,,,,,,,,,aexppro111,block1,nv audio/u1_24k.wav
nv,14,1,"<?xml version=""1.0""?>\n<Clock xmlns:dt=""urn:schemas-microsoft-com:datatypes""><Description dt:dt=""string"">E-Prime Primary Realtime Clock</Description><StartTime><Timestamp dt:dt=""int"">0</Timestamp><DateUtc dt:dt=""string"">2016-12-23T06:24:51Z</DateUtc></StartTime><FrequencyChanges><FrequencyChange><Frequency dt:dt=""r8"">3579545</Frequency><Timestamp dt:dt=""r8"">69942940880</Timestamp><Current dt:dt=""r8"">0</Current><DateUtc dt:dt=""string"">2016-12-23T06:24:51Z</DateUtc></FrequencyChange></FrequencyChanges></Clock>\n",2016-12-23 14:24,74.894,1,1224146608,12-23-2016,14:24:51,6:24:51,27,e,2,6,26,,,,,,,0,,-999999,21,83898,1,1142,85040,,,,,,,,,aexppro111,block1,nv audio/e1_24k.wav
nv,14,1,"<?xml version=""1.0""?>\n<Clock xmlns:dt=""urn:schemas-microsoft-com:datatypes""><Description dt:dt=""string"">E-Prime Primary Realtime Clock</Description><StartTime><Timestamp dt:dt=""int"">0</Timestamp><DateUtc dt:dt=""string"">2016-12-23T06:24:51Z</DateUtc></StartTime><FrequencyChanges><FrequencyChange><Frequency dt:dt=""r8"">3579545</Frequency><Timestamp dt:dt=""r8"">69942940880</Timestamp><Current dt:dt=""r8"">0</Current><DateUtc dt:dt=""string"">2016-12-23T06:24:51Z</DateUtc></FrequencyChange></FrequencyChanges></Clock>\n",2016-12-23 14:24,74.894,1,1224146608,12-23-2016,14:24:51,6:24:51,28,i,3,6,27,,,,,,,0,,-999999,21,85567,1,511,86078,,,,,,,,,aexppro111,block1,nv audio/i1_24k.wav
nv,14,1,"<?xml version=""1.0""?>\n<Clock xmlns:dt=""urn:schemas-microsoft-com:datatypes""><Description dt:dt=""string"">E-Prime Primary Realtime Clock</Description><StartTime><Timestamp dt:dt=""int"">0</Timestamp><DateUtc dt:dt=""string"">2016-12-23T06:24:51Z</DateUtc></StartTime><FrequencyChanges><FrequencyChange><Frequency dt:dt=""r8"">3579545</Frequency><Timestamp dt:dt=""r8"">69942940880</Timestamp><Current dt:dt=""r8"">0</Current><DateUtc dt:dt=""string"">2016-12-23T06:24:51Z</DateUtc></FrequencyChange></FrequencyChanges></Clock>\n",2016-12-23 14:24,74.894,1,1224146608,12-23-2016,14:24:51,6:24:51,29,a,1,6,28,,,,,,,0,,-999999,21,86609,1,808,87417,,,,,,,,,aexppro111,block1,nv audio/a1_24k.wav
nv,14,1,"<?xml version=""1.0""?>\n<Clock xmlns:dt=""urn:schemas-microsoft-com:datatypes""><Description dt:dt=""string"">E-Prime Primary Realtime Clock</Description><StartTime><Timestamp dt:dt=""int"">0</Timestamp><DateUtc dt:dt=""string"">2016-12-23T06:24:51Z</DateUtc></StartTime><FrequencyChanges><FrequencyChange><Frequency dt:dt=""r8"">3579545</Frequency><Timestamp dt:dt=""r8"">69942940880</Timestamp><Current dt:dt=""r8"">0</Current><DateUtc dt:dt=""string"">2016-12-23T06:24:51Z</DateUtc></FrequencyChange></FrequencyChanges></Clock>\n",2016-12-23 14:24,74.894,1,1224146608,12-23-2016,14:24:51,6:24:51,30,v,5,6,29,,,,,,,0,,-999999,21,87944,1,1051,88995,,,,,,,,,aexppro111,block1,nv audio/y1_24k.wav
nv,14,1,"<?xml version=""1.0""?>\n<Clock xmlns:dt=""urn:schemas-microsoft-com:datatypes""><Description dt:dt=""string"">E-Prime Primary Realtime Clock</Description><StartTime><Timestamp dt:dt=""int"">0</Timestamp><DateUtc dt:dt=""string"">2016-12-23T06:24:51Z</DateUtc></StartTime><FrequencyChanges><FrequencyChange><Frequency dt:dt=""r8"">3579545</Frequency><Timestamp dt:dt=""r8"">69942940880</Timestamp><Current dt:dt=""r8"">0</Current><DateUtc dt:dt=""string"">2016-12-23T06:24:51Z</DateUtc></FrequencyChange></FrequencyChanges></Clock>\n",2016-12-23 14:24,74.894,1,1224146608,12-23-2016,14:24:51,6:24:51,31,u,4,6,30,,,,,,,0,,-999999,20,89519,1,860,90379,,,,,,,,,aexppro111,block1,nv audio/u1_24k.wav
nv,14,1,"<?xml version=""1.0""?>\n<Clock xmlns:dt=""urn:schemas-microsoft-com:datatypes""><Description dt:dt=""string"">E-Prime Primary Realtime Clock</Description><StartTime><Timestamp dt:dt=""int"">0</Timestamp><DateUtc dt:dt=""string"">2016-12-23T06:24:51Z</DateUtc></StartTime><FrequencyChanges><FrequencyChange><Frequency dt:dt=""r8"">3579545</Frequency><Timestamp dt:dt=""r8"">69942940880</Timestamp><Current dt:dt=""r8"">0</Current><DateUtc dt:dt=""string"">2016-12-23T06:24:51Z</DateUtc></FrequencyChange></FrequencyChanges></Clock>\n",2016-12-23 14:24,74.894,1,1224146608,12-23-2016,14:24:51,6:24:51,32,u,4,7,31,,,,,,,0,,-999999,34,90921,1,591,91512,,,,,,,,,aexppro111,block1,nv audio/u1_24k.wav
nv,14,1,"<?xml version=""1.0""?>\n<Clock xmlns:dt=""urn:schemas-microsoft-com:datatypes""><Description dt:dt=""string"">E-Prime Primary Realtime Clock</Description><StartTime><Timestamp dt:dt=""int"">0</Timestamp><DateUtc dt:dt=""string"">2016-12-23T06:24:51Z</DateUtc></StartTime><FrequencyChanges><FrequencyChange><Frequency dt:dt=""r8"">3579545</Frequency><Timestamp dt:dt=""r8"">69942940880</Timestamp><Current dt:dt=""r8"">0</Current><DateUtc dt:dt=""string"">2016-12-23T06:24:51Z</DateUtc></FrequencyChange></FrequencyChanges></Clock>\n",2016-12-23 14:24,74.894,1,1224146608,12-23-2016,14:24:51,6:24:51,33,v,2,7,32,,,,,,,0,,-999999,21,92043,1,719,92762,,,,,,,,,aexppro111,block1,nv audio/e1_24k.wav
nv,14,1,"<?xml version=""1.0""?>\n<Clock xmlns:dt=""urn:schemas-microsoft-com:datatypes""><Description dt:dt=""string"">E-Prime Primary Realtime Clock</Description><StartTime><Timestamp dt:dt=""int"">0</Timestamp><DateUtc dt:dt=""string"">2016-12-23T06:24:51Z</DateUtc></StartTime><FrequencyChanges><FrequencyChange><Frequency dt:dt=""r8"">3579545</Frequency><Timestamp dt:dt=""r8"">69942940880</Timestamp><Current dt:dt=""r8"">0</Current><DateUtc dt:dt=""string"">2016-12-23T06:24:51Z</DateUtc></FrequencyChange></FrequencyChanges></Clock>\n",2016-12-23 14:24,74.894,1,1224146608,12-23-2016,14:24:51,6:24:51,34,i,3,7,33,,,,,,,0,,-999999,21,93285,1,835,94120,,,,,,,,,aexppro111,block1,nv audio/i1_24k.wav
nv,14,1,"<?xml version=""1.0""?>\n<Clock xmlns:dt=""urn:schemas-microsoft-com:datatypes""><Description dt:dt=""string"">E-Prime Primary Realtime Clock</Description><StartTime><Timestamp dt:dt=""int"">0</Timestamp><DateUtc dt:dt=""string"">2016-12-23T06:24:51Z</DateUtc></StartTime><FrequencyChanges><FrequencyChange><Frequency dt:dt=""r8"">3579545</Frequency><Timestamp dt:dt=""r8"">69942940880</Timestamp><Current dt:dt=""r8"">0</Current><DateUtc dt:dt=""string"">2016-12-23T06:24:51Z</DateUtc></FrequencyChange></FrequencyChanges></Clock>\n",2016-12-23 14:24,74.894,1,1224146608,12-23-2016,14:24:51,6:24:51,35,a,1,7,34,,,,,,,0,,-999999,21,94647,1,745,95392,,,,,,,,,aexppro111,block1,nv audio/a1_24k.wav
nv,14,1,"<?xml version=""1.0""?>\n<Clock xmlns:dt=""urn:schemas-microsoft-com:datatypes""><Description dt:dt=""string"">E-Prime Primary Realtime Clock</Description><StartTime><Timestamp dt:dt=""int"">0</Timestamp><DateUtc dt:dt=""string"">2016-12-23T06:24:51Z</DateUtc></StartTime><FrequencyChanges><FrequencyChange><Frequency dt:dt=""r8"">3579545</Frequency><Timestamp dt:dt=""r8"">69942940880</Timestamp><Current dt:dt=""r8"">0</Current><DateUtc dt:dt=""string"">2016-12-23T06:24:51Z</DateUtc></FrequencyChange></FrequencyChanges></Clock>\n",2016-12-23 14:24,74.894,1,1224146608,12-23-2016,14:24:51,6:24:51,36,v,5,7,35,,,,,,,0,,-999999,21,95915,1,1099,97014,,,,,,,,,aexppro111,block1,nv audio/y1_24k.wav
nv,14,1,"<?xml version=""1.0""?>\n<Clock xmlns:dt=""urn:schemas-microsoft-com:datatypes""><Description dt:dt=""string"">E-Prime Primary Realtime Clock</Description><StartTime><Timestamp dt:dt=""int"">0</Timestamp><DateUtc dt:dt=""string"">2016-12-23T06:24:51Z</DateUtc></StartTime><FrequencyChanges><FrequencyChange><Frequency dt:dt=""r8"">3579545</Frequency><Timestamp dt:dt=""r8"">69942940880</Timestamp><Current dt:dt=""r8"">0</Current><DateUtc dt:dt=""string"">2016-12-23T06:24:51Z</DateUtc></FrequencyChange></FrequencyChanges></Clock>\n",2016-12-23 14:24,74.894,1,1224146608,12-23-2016,14:24:51,6:24:51,37,a,1,8,36,,,,,,,0,,-999999,21,97544,1,783,98327,,,,,,,,,aexppro111,block1,nv audio/a1_24k.wav
nv,14,1,"<?xml version=""1.0""?>\n<Clock xmlns:dt=""urn:schemas-microsoft-com:datatypes""><Description dt:dt=""string"">E-Prime Primary Realtime Clock</Description><StartTime><Timestamp dt:dt=""int"">0</Timestamp><DateUtc dt:dt=""string"">2016-12-23T06:24:51Z</DateUtc></StartTime><FrequencyChanges><FrequencyChange><Frequency dt:dt=""r8"">3579545</Frequency><Timestamp dt:dt=""r8"">69942940880</Timestamp><Current dt:dt=""r8"">0</Current><DateUtc dt:dt=""string"">2016-12-23T06:24:51Z</DateUtc></FrequencyChange></FrequencyChanges></Clock>\n",2016-12-23 14:24,74.894,1,1224146608,12-23-2016,14:24:51,6:24:51,38,e,2,8,37,,,,,,,0,,-999999,21,98853,1,1346,100199,,,,,,,,,aexppro111,block1,nv audio/e1_24k.wav
nv,14,1,"<?xml version=""1.0""?>\n<Clock xmlns:dt=""urn:schemas-microsoft-com:datatypes""><Description dt:dt=""string"">E-Prime Primary Realtime Clock</Description><StartTime><Timestamp dt:dt=""int"">0</Timestamp><DateUtc dt:dt=""string"">2016-12-23T06:24:51Z</DateUtc></StartTime><FrequencyChanges><FrequencyChange><Frequency dt:dt=""r8"">3579545</Frequency><Timestamp dt:dt=""r8"">69942940880</Timestamp><Current dt:dt=""r8"">0</Current><DateUtc dt:dt=""string"">2016-12-23T06:24:51Z</DateUtc></FrequencyChange></FrequencyChanges></Clock>\n",2016-12-23 14:24,74.894,1,1224146608,12-23-2016,14:24:51,6:24:51,39,v,5,8,38,,,,,,,0,,-999999,22,100723,1,1165,101888,,,,,,,,,aexppro111,block1,nv audio/y1_24k.wav,
nv,14,1,"<?xml version=""1.0""?>\n<Clock xmlns:dt=""urn:schemas-microsoft-com:datatypes""><Description dt:dt=""string"">E-Prime Primary Realtime Clock</Description><StartTime><Timestamp dt:dt=""int"">0</Timestamp><DateUtc dt:dt=""string"">2016-12-23T06:24:51Z</DateUtc></StartTime><FrequencyChanges><FrequencyChange><Frequency dt:dt=""r8"">3579545</Frequency><Timestamp dt:dt=""r8"">69942940880</Timestamp><Current dt:dt=""r8"">0</Current><DateUtc dt:dt=""string"">2016-12-23T06:24:51Z</DateUtc></FrequencyChange></FrequencyChanges></Clock>\n",2016-12-23 14:24,74.894,1,1224146608,12-23-2016,14:24:51,6:24:51,40,i,3,8,39,,,,,,,0,,-999999,21,102418,1,616,103034,,,,,,,,,aexppro111,block1,nv audio/i1_24k.wav,
nv,14,1,"<?xml version=""1.0""?>\n<Clock xmlns:dt=""urn:schemas-microsoft-com:datatypes""><Description dt:dt=""string"">E-Prime Primary Realtime Clock</Description><StartTime><Timestamp dt:dt=""int"">0</Timestamp><DateUtc dt:dt=""string"">2016-12-23T06:24:51Z</DateUtc></StartTime><FrequencyChanges><FrequencyChange><Frequency dt:dt=""r8"">3579545</Frequency><Timestamp dt:dt=""r8"">69942940880</Timestamp><Current dt:dt=""r8"">0</Current><DateUtc dt:dt=""string"">2016-12-23T06:24:51Z</DateUtc></FrequencyChange></FrequencyChanges></Clock>\n",2016-12-23 14:24,74.894,1,1224146608,12-23-2016,14:24:51,6:24:51,41,u,4,8,40,,,,,,,0,,-999999,21,103566,1,358,103924,,,,,,,,,aexppro111,block1,nv audio/u1_24k.wav,
nv,14,1,"<?xml version=""1.0""?>\n<Clock xmlns:dt=""urn:schemas-microsoft-com:datatypes""><Description dt:dt=""string"">E-Prime Primary Realtime Clock</Description><StartTime><Timestamp dt:dt=""int"">0</Timestamp><DateUtc dt:dt=""string"">2016-12-23T06:24:51Z</DateUtc></StartTime><FrequencyChanges><FrequencyChange><Frequency dt:dt=""r8"">3579545</Frequency><Timestamp dt:dt=""r8"">69942940880</Timestamp><Current dt:dt=""r8"">0</Current><DateUtc dt:dt=""string"">2016-12-23T06:24:51Z</DateUtc></FrequencyChange></FrequencyChanges></Clock>\n",2016-12-23 14:24,74.894,1,1224146608,12-23-2016,14:24:51,6:24:51,42,i,3,9,41,,,,,,,0,,-999999,21,104447,1,568,105015,,,,,,,,,aexppro111,block1,nv audio/i1_24k.wav,
nv,14,1,"<?xml version=""1.0""?>\n<Clock xmlns:dt=""urn:schemas-microsoft-com:datatypes""><Description dt:dt=""string"">E-Prime Primary Realtime Clock</Description><StartTime><Timestamp dt:dt=""int"">0</Timestamp><DateUtc dt:dt=""string"">2016-12-23T06:24:51Z</DateUtc></StartTime><FrequencyChanges><FrequencyChange><Frequency dt:dt=""r8"">3579545</Frequency><Timestamp dt:dt=""r8"">69942940880</Timestamp><Current dt:dt=""r8"">0</Current><DateUtc dt:dt=""string"">2016-12-23T06:24:51Z</DateUtc></FrequencyChange></FrequencyChanges></Clock>\n",2016-12-23 14:24,74.894,1,1224146608,12-23-2016,14:24:51,6:24:51,43,e,2,9,42,,,,,,,0,,-999999,21,105542,1,1723,107265,,,,,,,,,aexppro111,block1,nv audio/e1_24k.wav,
nv,14,1,"<?xml version=""1.0""?>\n<Clock xmlns:dt=""urn:schemas-microsoft-com:datatypes""><Description dt:dt=""string"">E-Prime Primary Realtime Clock</Description><StartTime><Timestamp dt:dt=""int"">0</Timestamp><DateUtc dt:dt=""string"">2016-12-23T06:24:51Z</DateUtc></StartTime><FrequencyChanges><FrequencyChange><Frequency dt:dt=""r8"">3579545</Frequency><Timestamp dt:dt=""r8"">69942940880</Timestamp><Current dt:dt=""r8"">0</Current><DateUtc dt:dt=""string"">2016-12-23T06:24:51Z</DateUtc></FrequencyChange></FrequencyChanges></Clock>\n",2016-12-23 14:24,74.894,1,1224146608,12-23-2016,14:24:51,6:24:51,44,,5,9,43,,,,,,,0,,-999999,34,107812,1,767,108579,,,,,,,,,aexppro111,block1,nv audio/y1_24k.wav,
nv,14,1,"<?xml version=""1.0""?>\n<Clock xmlns:dt=""urn:schemas-microsoft-com:datatypes""><Description dt:dt=""string"">E-Prime Primary Realtime Clock</Description><StartTime><Timestamp dt:dt=""int"">0</Timestamp><DateUtc dt:dt=""string"">2016-12-23T06:24:51Z</DateUtc></StartTime><FrequencyChanges><FrequencyChange><Frequency dt:dt=""r8"">3579545</Frequency><Timestamp dt:dt=""r8"">69942940880</Timestamp><Current dt:dt=""r8"">0</Current><DateUtc dt:dt=""string"">2016-12-23T06:24:51Z</DateUtc></FrequencyChange></FrequencyChanges></Clock>\n",2016-12-23 14:24,74.894,1,1224146608,12-23-2016,14:24:51,6:24:51,45,u,4,9,44,,,,,,,0,,-999999,20,110108,1,682,110790,,,,,,,,,aexppro111,block1,nv audio/u1_24k.wav,
nv,14,1,"<?xml version=""1.0""?>\n<Clock xmlns:dt=""urn:schemas-microsoft-com:datatypes""><Description dt:dt=""string"">E-Prime Primary Realtime Clock</Description><StartTime><Timestamp dt:dt=""int"">0</Timestamp><DateUtc dt:dt=""string"">2016-12-23T06:24:51Z</DateUtc></StartTime><FrequencyChanges><FrequencyChange><Frequency dt:dt=""r8"">3579545</Frequency><Timestamp dt:dt=""r8"">69942940880</Timestamp><Current dt:dt=""r8"">0</Current><DateUtc dt:dt=""string"">2016-12-23T06:24:51Z</DateUtc></FrequencyChange></FrequencyChanges></Clock>\n",2016-12-23 14:24,74.894,1,1224146608,12-23-2016,14:24:51,6:24:51,46,a,1,9,45,,,,,,,0,,-999999,20,111323,1,737,112060,,,,,,,,,aexppro111,block1,nv audio/a1_24k.wav,
nv,14,1,"<?xml version=""1.0""?>\n<Clock xmlns:dt=""urn:schemas-microsoft-com:datatypes""><Description dt:dt=""string"">E-Prime Primary Realtime Clock</Description><StartTime><Timestamp dt:dt=""int"">0</Timestamp><DateUtc dt:dt=""string"">2016-12-23T06:24:51Z</DateUtc></StartTime><FrequencyChanges><FrequencyChange><Frequency dt:dt=""r8"">3579545</Frequency><Timestamp dt:dt=""r8"">69942940880</Timestamp><Current dt:dt=""r8"">0</Current><DateUtc dt:dt=""string"">2016-12-23T06:24:51Z</DateUtc></FrequencyChange></FrequencyChanges></Clock>\n",2016-12-23 14:24,74.894,1,1224146608,12-23-2016,14:24:51,6:24:51,47,a,1,10,46,,,,,,,0,,-999999,21,112592,1,658,113250,,,,,,,,,aexppro111,block1,nv audio/a1_24k.wav,
nv,14,1,"<?xml version=""1.0""?>\n<Clock xmlns:dt=""urn:schemas-microsoft-com:datatypes""><Description dt:dt=""string"">E-Prime Primary Realtime Clock</Description><StartTime><Timestamp dt:dt=""int"">0</Timestamp><DateUtc dt:dt=""string"">2016-12-23T06:24:51Z</DateUtc></StartTime><FrequencyChanges><FrequencyChange><Frequency dt:dt=""r8"">3579545</Frequency><Timestamp dt:dt=""r8"">69942940880</Timestamp><Current dt:dt=""r8"">0</Current><DateUtc dt:dt=""string"">2016-12-23T06:24:51Z</DateUtc></FrequencyChange></FrequencyChanges></Clock>\n",2016-12-23 14:24,74.894,1,1224146608,12-23-2016,14:24:51,6:24:51,48,i,3,10,47,,,,,,,0,,-999999,34,113794,1,924,114718,,,,,,,,,aexppro111,block1,nv audio/i1_24k.wav,
nv,14,1,"<?xml version=""1.0""?>\n<Clock xmlns:dt=""urn:schemas-microsoft-com:datatypes""><Description dt:dt=""string"">E-Prime Primary Realtime Clock</Description><StartTime><Timestamp dt:dt=""int"">0</Timestamp><DateUtc dt:dt=""string"">2016-12-23T06:24:51Z</DateUtc></StartTime><FrequencyChanges><FrequencyChange><Frequency dt:dt=""r8"">3579545</Frequency><Timestamp dt:dt=""r8"">69942940880</Timestamp><Current dt:dt=""r8"">0</Current><DateUtc dt:dt=""string"">2016-12-23T06:24:51Z</DateUtc></FrequencyChange></FrequencyChanges></Clock>\n",2016-12-23 14:24,74.894,1,1224146608,12-23-2016,14:24:51,6:24:51,49,u,5,10,48,,,,,,,0,,-999999,21,115249,1,726,115975,,,,,,,,,aexppro111,block1,nv audio/y1_24k.wav,
nv,14,1,"<?xml version=""1.0""?>\n<Clock xmlns:dt=""urn:schemas-microsoft-com:datatypes""><Description dt:dt=""string"">E-Prime Primary Realtime Clock</Description><StartTime><Timestamp dt:dt=""int"">0</Timestamp><DateUtc dt:dt=""string"">2016-12-23T06:24:51Z</DateUtc></StartTime><FrequencyChanges><FrequencyChange><Frequency dt:dt=""r8"">3579545</Frequency><Timestamp dt:dt=""r8"">69942940880</Timestamp><Current dt:dt=""r8"">0</Current><DateUtc dt:dt=""string"">2016-12-23T06:24:51Z</DateUtc></FrequencyChange></FrequencyChanges></Clock>\n",2016-12-23 14:24,74.894,1,1224146608,12-23-2016,14:24:51,6:24:51,50,e,2,10,49,,,,,,,0,,-999999,21,116504,1,1284,117788,,,,,,,,,aexppro111,block1,nv audio/e1_24k.wav,
nv,14,1,"<?xml version=""1.0""?>\n<Clock xmlns:dt=""urn:schemas-microsoft-com:datatypes""><Description dt:dt=""string"">E-Prime Primary Realtime Clock</Description><StartTime><Timestamp dt:dt=""int"">0</Timestamp><DateUtc dt:dt=""string"">2016-12-23T06:24:51Z</DateUtc></StartTime><FrequencyChanges><FrequencyChange><Frequency dt:dt=""r8"">3579545</Frequency><Timestamp dt:dt=""r8"">69942940880</Timestamp><Current dt:dt=""r8"">0</Current><DateUtc dt:dt=""string"">2016-12-23T06:24:51Z</DateUtc></FrequencyChange></FrequencyChanges></Clock>\n",2016-12-23 14:24,74.894,1,1224146608,12-23-2016,14:24:51,6:24:51,51,u,4,10,50,,,,,,,0,,-999999,21,118320,1,696,119016,,,,,,,,,aexppro111,block1,nv audio/u1_24k.wav,
nv,14,1,"<?xml version=""1.0""?>\n<Clock xmlns:dt=""urn:schemas-microsoft-com:datatypes""><Description dt:dt=""string"">E-Prime Primary Realtime Clock</Description><StartTime><Timestamp dt:dt=""int"">0</Timestamp><DateUtc dt:dt=""string"">2016-12-23T06:24:51Z</DateUtc></StartTime><FrequencyChanges><FrequencyChange><Frequency dt:dt=""r8"">3579545</Frequency><Timestamp dt:dt=""r8"">69942940880</Timestamp><Current dt:dt=""r8"">0</Current><DateUtc dt:dt=""string"">2016-12-23T06:24:51Z</DateUtc></FrequencyChange></FrequencyChanges></Clock>\n",2016-12-23 14:24,74.894,1,1224146608,12-23-2016,14:24:51,6:24:51,52,i,,,,3,1,1,,,,,,,,,,,,0,,-999999,21,180287,1,1100,181387,aexppro112,block2,,nv audio/i1_24k.wav
nv,14,1,"<?xml version=""1.0""?>\n<Clock xmlns:dt=""urn:schemas-microsoft-com:datatypes""><Description dt:dt=""string"">E-Prime Primary Realtime Clock</Description><StartTime><Timestamp dt:dt=""int"">0</Timestamp><DateUtc dt:dt=""string"">2016-12-23T06:24:51Z</DateUtc></StartTime><FrequencyChanges><FrequencyChange><Frequency dt:dt=""r8"">3579545</Frequency><Timestamp dt:dt=""r8"">69942940880</Timestamp><Current dt:dt=""r8"">0</Current><DateUtc dt:dt=""string"">2016-12-23T06:24:51Z</DateUtc></FrequencyChange></FrequencyChanges></Clock>\n",2016-12-23 14:24,74.894,1,1224146608,12-23-2016,14:24:51,6:24:51,53,a,,,,1,1,2,,,,,,,,,,,,0,,-999999,20,181916,1,786,182702,aexppro112,block2,,nv audio/a1_24k.wav
nv,14,1,"<?xml version=""1.0""?>\n<Clock xmlns:dt=""urn:schemas-microsoft-com:datatypes""><Description dt:dt=""string"">E-Prime Primary Realtime Clock</Description><StartTime><Timestamp dt:dt=""int"">0</Timestamp><DateUtc dt:dt=""string"">2016-12-23T06:24:51Z</DateUtc></StartTime><FrequencyChanges><FrequencyChange><Frequency dt:dt=""r8"">3579545</Frequency><Timestamp dt:dt=""r8"">69942940880</Timestamp><Current dt:dt=""r8"">0</Current><DateUtc dt:dt=""string"">2016-12-23T06:24:51Z</DateUtc></FrequencyChange></FrequencyChanges></Clock>\n",2016-12-23 14:24,74.894,1,1224146608,12-23-2016,14:24:51,6:24:51,54,v,,,,5,1,3,,,,,,,,,,,,0,,-999999,21,183225,1,1129,184354,aexppro112,block2,,nv audio/y1_24k.wav
nv,14,1,"<?xml version=""1.0""?>\n<Clock xmlns:dt=""urn:schemas-microsoft-com:datatypes""><Description dt:dt=""string"">E-Prime Primary Realtime Clock</Description><StartTime><Timestamp dt:dt=""int"">0</Timestamp><DateUtc dt:dt=""string"">2016-12-23T06:24:51Z</DateUtc></StartTime><FrequencyChanges><FrequencyChange><Frequency dt:dt=""r8"">3579545</Frequency><Timestamp dt:dt=""r8"">69942940880</Timestamp><Current dt:dt=""r8"">0</Current><DateUtc dt:dt=""string"">2016-12-23T06:24:51Z</DateUtc></FrequencyChange></FrequencyChanges></Clock>\n",2016-12-23 14:24,74.894,1,1224146608,12-23-2016,14:24:51,6:24:51,55,e,,,,2,1,4,,,,,,,,,,,,0,,-999999,20,184880,1,757,185637,aexppro112,block2,,nv audio/e1_24k.wav
nv,14,1,"<?xml version=""1.0""?>\n<Clock xmlns:dt=""urn:schemas-microsoft-com:datatypes""><Description dt:dt=""string"">E-Prime Primary Realtime Clock</Description><StartTime><Timestamp dt:dt=""int"">0</Timestamp><DateUtc dt:dt=""string"">2016-12-23T06:24:51Z</DateUtc></StartTime><FrequencyChanges><FrequencyChange><Frequency dt:dt=""r8"">3579545</Frequency><Timestamp dt:dt=""r8"">69942940880</Timestamp><Current dt:dt=""r8"">0</Current><DateUtc dt:dt=""string"">2016-12-23T06:24:51Z</DateUtc></FrequencyChange></FrequencyChanges></Clock>\n",2016-12-23 14:24,74.894,1,1224146608,12-23-2016,14:24:51,6:24:51,56,u,,,,4,1,5,,,,,,,,,,,,0,,-999999,20,186162,1,613,186775,aexppro112,block2,,nv audio/u1_24k.wav
nv,14,1,"<?xml version=""1.0""?>\n<Clock xmlns:dt=""urn:schemas-microsoft-com:datatypes""><Description dt:dt=""string"">E-Prime Primary Realtime Clock</Description><StartTime><Timestamp dt:dt=""int"">0</Timestamp><DateUtc dt:dt=""string"">2016-12-23T06:24:51Z</DateUtc></StartTime><FrequencyChanges><FrequencyChange><Frequency dt:dt=""r8"">3579545</Frequency><Timestamp dt:dt=""r8"">69942940880</Timestamp><Current dt:dt=""r8"">0</Current><DateUtc dt:dt=""string"">2016-12-23T06:24:51Z</DateUtc></FrequencyChange></FrequencyChanges></Clock>\n",2016-12-23 14:24,74.894,1,1224146608,12-23-2016,14:24:51,6:24:51,57,i,,,,3,2,6,,,,,,,,,,,,0,,-999999,48,187324,1,441,187765,aexppro112,block2,,nv audio/i1_24k.wav
nv,14,1,"<?xml version=""1.0""?>\n<Clock xmlns:dt=""urn:schemas-microsoft-com:datatypes""><Description dt:dt=""string"">E-Prime Primary Realtime Clock</Description><StartTime><Timestamp dt:dt=""int"">0</Timestamp><DateUtc dt:dt=""string"">2016-12-23T06:24:51Z</DateUtc></StartTime><FrequencyChanges><FrequencyChange><Frequency dt:dt=""r8"">3579545</Frequency><Timestamp dt:dt=""r8"">69942940880</Timestamp><Current dt:dt=""r8"">0</Current><DateUtc dt:dt=""string"">2016-12-23T06:24:51Z</DateUtc></FrequencyChange></FrequencyChanges></Clock>\n",2016-12-23 14:24,74.894,1,1224146608,12-23-2016,14:24:51,6:24:51,58,a,,,,1,2,7,,,,,,,,,,,,0,,-999999,34,188312,1,660,188972,aexppro112,block2,,nv audio/a1_24k.wav
nv,14,1,"<?xml version=""1.0""?>\n<Clock xmlns:dt=""urn:schemas-microsoft-com:datatypes""><Description dt:dt=""string"">E-Prime Primary Realtime Clock</Description><StartTime><Timestamp dt:dt=""int"">0</Timestamp><DateUtc dt:dt=""string"">2016-12-23T06:24:51Z</DateUtc></StartTime><FrequencyChanges><FrequencyChange><Frequency dt:dt=""r8"">3579545</Frequency><Timestamp dt:dt=""r8"">69942940880</Timestamp><Current dt:dt=""r8"">0</Current><DateUtc dt:dt=""string"">2016-12-23T06:24:51Z</DateUtc></FrequencyChange></FrequencyChanges></Clock>\n",2016-12-23 14:24,74.894,1,1224146608,12-23-2016,14:24:51,6:24:51,59,v,,,,5,2,8,,,,,,,,,,,,0,,-999999,34,189514,1,997,190511,aexppro112,block2,,nv audio/y1_24k.wav
nv,14,1,"<?xml version=""1.0""?>\n<Clock xmlns:dt=""urn:schemas-microsoft-com:datatypes""><Description dt:dt=""string"">E-Prime Primary Realtime Clock</Description><StartTime><Timestamp dt:dt=""int"">0</Timestamp><DateUtc dt:dt=""string"">2016-12-23T06:24:51Z</DateUtc></StartTime><FrequencyChanges><FrequencyChange><Frequency dt:dt=""r8"">3579545</Frequency><Timestamp dt:dt=""r8"">69942940880</Timestamp><Current dt:dt=""r8"">0</Current><DateUtc dt:dt=""string"">2016-12-23T06:24:51Z</DateUtc></FrequencyChange></FrequencyChanges></Clock>\n",2016-12-23 14:24,74.894,1,1224146608,12-23-2016,14:24:51,6:24:51,60,e,,,,2,2,9,,,,,,,,,,,,0,,-999999,21,191036,1,1435,192471,aexppro112,block2,,nv audio/e1_24k.wav
nv,14,1,"<?xml version=""1.0""?>\n<Clock xmlns:dt=""urn:schemas-microsoft-com:datatypes""><Description dt:dt=""string"">E-Prime Primary Realtime Clock</Description><StartTime><Timestamp dt:dt=""int"">0</Timestamp><DateUtc dt:dt=""string"">2016-12-23T06:24:51Z</DateUtc></StartTime><FrequencyChanges><FrequencyChange><Frequency dt:dt=""r8"">3579545</Frequency><Timestamp dt:dt=""r8"">69942940880</Timestamp><Current dt:dt=""r8"">0</Current><DateUtc dt:dt=""string"">2016-12-23T06:24:51Z</DateUtc></FrequencyChange></FrequencyChanges></Clock>\n",2016-12-23 14:24,74.894,1,1224146608,12-23-2016,14:24:51,6:24:51,61,u,,,,4,2,10,,,,,,,,,,,,0,,-999999,34,193012,1,580,193592,aexppro112,block2,,nv audio/u1_24k.wav
nv,14,1,"<?xml version=""1.0""?>\n<Clock xmlns:dt=""urn:schemas-microsoft-com:datatypes""><Description dt:dt=""string"">E-Prime Primary Realtime Clock</Description><StartTime><Timestamp dt:dt=""int"">0</Timestamp><DateUtc dt:dt=""string"">2016-12-23T06:24:51Z</DateUtc></StartTime><FrequencyChanges><FrequencyChange><Frequency dt:dt=""r8"">3579545</Frequency><Timestamp dt:dt=""r8"">69942940880</Timestamp><Current dt:dt=""r8"">0</Current><DateUtc dt:dt=""string"">2016-12-23T06:24:51Z</DateUtc></FrequencyChange></FrequencyChanges></Clock>\n",2016-12-23 14:24,74.894,1,1224146608,12-23-2016,14:24:51,6:24:51,62,u,,,,4,3,11,,,,,,,,,,,,0,,-999999,21,194120,1,470,194590,aexppro112,block2,,nv audio/u1_24k.wav
nv,14,1,"<?xml version=""1.0""?>\n<Clock xmlns:dt=""urn:schemas-microsoft-com:datatypes""><Description dt:dt=""string"">E-Prime Primary Realtime Clock</Description><StartTime><Timestamp dt:dt=""int"">0</Timestamp><DateUtc dt:dt=""string"">2016-12-23T06:24:51Z</DateUtc></StartTime><FrequencyChanges><FrequencyChange><Frequency dt:dt=""r8"">3579545</Frequency><Timestamp dt:dt=""r8"">69942940880</Timestamp><Current dt:dt=""r8"">0</Current><DateUtc dt:dt=""string"">2016-12-23T06:24:51Z</DateUtc></FrequencyChange></FrequencyChanges></Clock>\n",2016-12-23 14:24,74.894,1,1224146608,12-23-2016,14:24:51,6:24:51,63,u,,,,3,3,12,,,,,,,,,,,,0,,-999999,21,195122,1,338,195460,aexppro112,block2,,nv audio/i1_24k.wav
nv,14,1,"<?xml version=""1.0""?>\n<Clock xmlns:dt=""urn:schemas-microsoft-com:datatypes""><Description dt:dt=""string"">E-Prime Primary Realtime Clock</Description><StartTime><Timestamp dt:dt=""int"">0</Timestamp><DateUtc dt:dt=""string"">2016-12-23T06:24:51Z</DateUtc></StartTime><FrequencyChanges><FrequencyChange><Frequency dt:dt=""r8"">3579545</Frequency><Timestamp dt:dt=""r8"">69942940880</Timestamp><Current dt:dt=""r8"">0</Current><DateUtc dt:dt=""string"">2016-12-23T06:24:51Z</DateUtc></FrequencyChange></FrequencyChanges></Clock>\n",2016-12-23 14:24,74.894,1,1224146608,12-23-2016,14:24:51,6:24:51,64,a,,,,1,3,13,,,,,,,,,,,,0,,-999999,20,195989,1,729,196718,aexppro112,block2,,nv audio/a1_24k.wav
nv,14,1,"<?xml version=""1.0""?>\n<Clock xmlns:dt=""urn:schemas-microsoft-com:datatypes""><Description dt:dt=""string"">E-Prime Primary Realtime Clock</Description><StartTime><Timestamp dt:dt=""int"">0</Timestamp><DateUtc dt:dt=""string"">2016-12-23T06:24:51Z</DateUtc></StartTime><FrequencyChanges><FrequencyChange><Frequency dt:dt=""r8"">3579545</Frequency><Timestamp dt:dt=""r8"">69942940880</Timestamp><Current dt:dt=""r8"">0</Current><DateUtc dt:dt=""string"">2016-12-23T06:24:51Z</DateUtc></FrequencyChange></FrequencyChanges></Clock>\n",2016-12-23 14:24,74.894,1,1224146608,12-23-2016,14:24:51,6:24:51,65,e,,,,2,3,14,,,,,,,,,,,,0,,-999999,21,197245,1,620,197865,aexppro112,block2,,nv audio/e1_24k.wav
nv,14,1,"<?xml version=""1.0""?>\n<Clock xmlns:dt=""urn:schemas-microsoft-com:datatypes""><Description dt:dt=""string"">E-Prime Primary Realtime Clock</Description><StartTime><Timestamp dt:dt=""int"">0</Timestamp><DateUtc dt:dt=""string"">2016-12-23T06:24:51Z</DateUtc></StartTime><FrequencyChanges><FrequencyChange><Frequency dt:dt=""r8"">3579545</Frequency><Timestamp dt:dt=""r8"">69942940880</Timestamp><Current dt:dt=""r8"">0</Current><DateUtc dt:dt=""string"">2016-12-23T06:24:51Z</DateUtc></FrequencyChange></FrequencyChanges></Clock>\n",2016-12-23 14:24,74.894,1,1224146608,12-23-2016,14:24:51,6:24:51,66,v,,,,5,3,15,,,,,,,,,,,,0,,-999999,21,198393,1,819,199212,aexppro112,block2,,nv audio/y1_24k.wav
nv,14,1,"<?xml version=""1.0""?>\n<Clock xmlns:dt=""urn:schemas-microsoft-com:datatypes""><Description dt:dt=""string"">E-Prime Primary Realtime Clock</Description><StartTime><Timestamp dt:dt=""int"">0</Timestamp><DateUtc dt:dt=""string"">2016-12-23T06:24:51Z</DateUtc></StartTime><FrequencyChanges><FrequencyChange><Frequency dt:dt=""r8"">3579545</Frequency><Timestamp dt:dt=""r8"">69942940880</Timestamp><Current dt:dt=""r8"">0</Current><DateUtc dt:dt=""string"">2016-12-23T06:24:51Z</DateUtc></FrequencyChange></FrequencyChanges></Clock>\n",2016-12-23 14:24,74.894,1,1224146608,12-23-2016,14:24:51,6:24:51,67,u,,,,4,4,16,,,,,,,,,,,,0,,-999999,20,199741,1,569,200310,aexppro112,block2,,nv audio/u1_24k.wav
nv,14,1,"<?xml version=""1.0""?>\n<Clock xmlns:dt=""urn:schemas-microsoft-com:datatypes""><Description dt:dt=""string"">E-Prime Primary Realtime Clock</Description><StartTime><Timestamp dt:dt=""int"">0</Timestamp><DateUtc dt:dt=""string"">2016-12-23T06:24:51Z</DateUtc></StartTime><FrequencyChanges><FrequencyChange><Frequency dt:dt=""r8"">3579545</Frequency><Timestamp dt:dt=""r8"">69942940880</Timestamp><Current dt:dt=""r8"">0</Current><DateUtc dt:dt=""string"">2016-12-23T06:24:51Z</DateUtc></FrequencyChange></FrequencyChanges></Clock>\n",2016-12-23 14:24,74.894,1,1224146608,12-23-2016,14:24:51,6:24:51,68,i,,,,3,4,17,,,,,,,,,,,,0,,-999999,20,200836,1,526,201362,aexppro112,block2,,nv audio/i1_24k.wav
nv,14,1,"<?xml version=""1.0""?>\n<Clock xmlns:dt=""urn:schemas-microsoft-com:datatypes""><Description dt:dt=""string"">E-Prime Primary Realtime Clock</Description><StartTime><Timestamp dt:dt=""int"">0</Timestamp><DateUtc dt:dt=""string"">2016-12-23T06:24:51Z</DateUtc></StartTime><FrequencyChanges><FrequencyChange><Frequency dt:dt=""r8"">3579545</Frequency><Timestamp dt:dt=""r8"">69942940880</Timestamp><Current dt:dt=""r8"">0</Current><DateUtc dt:dt=""string"">2016-12-23T06:24:51Z</DateUtc></FrequencyChange></FrequencyChanges></Clock>\n",2016-12-23 14:24,74.894,1,1224146608,12-23-2016,14:24:51,6:24:51,69,a,,,,1,4,18,,,,,,,,,,,,0,,-999999,34,201904,1,686,202590,aexppro112,block2,,nv audio/a1_24k.wav
nv,14,1,"<?xml version=""1.0""?>\n<Clock xmlns:dt=""urn:schemas-microsoft-com:datatypes""><Description dt:dt=""string"">E-Prime Primary Realtime Clock</Description><StartTime><Timestamp dt:dt=""int"">0</Timestamp><DateUtc dt:dt=""string"">2016-12-23T06:24:51Z</DateUtc></StartTime><FrequencyChanges><FrequencyChange><Frequency dt:dt=""r8"">3579545</Frequency><Timestamp dt:dt=""r8"">69942940880</Timestamp><Current dt:dt=""r8"">0</Current><DateUtc dt:dt=""string"">2016-12-23T06:24:51Z</DateUtc></FrequencyChange></FrequencyChanges></Clock>\n",2016-12-23 14:24,74.894,1,1224146608,12-23-2016,14:24:51,6:24:51,70,e,,,,2,4,19,,,,,,,,,,,,0,,-999999,20,203119,1,1269,204388,aexppro112,block2,,nv audio/e1_24k.wav
nv,14,1,"<?xml version=""1.0""?>\n<Clock xmlns:dt=""urn:schemas-microsoft-com:datatypes""><Description dt:dt=""string"">E-Prime Primary Realtime Clock</Description><StartTime><Timestamp dt:dt=""int"">0</Timestamp><DateUtc dt:dt=""string"">2016-12-23T06:24:51Z</DateUtc></StartTime><FrequencyChanges><FrequencyChange><Frequency dt:dt=""r8"">3579545</Frequency><Timestamp dt:dt=""r8"">69942940880</Timestamp><Current dt:dt=""r8"">0</Current><DateUtc dt:dt=""string"">2016-12-23T06:24:51Z</DateUtc></FrequencyChange></FrequencyChanges></Clock>\n",2016-12-23 14:24,74.894,1,1224146608,12-23-2016,14:24:51,6:24:51,71,v,,,,5,4,20,,,,,,,,,,,,0,,-999999,48,204949,1,817,205766,aexppro112,block2,,nv audio/y1_24k.wav
nv,14,1,"<?xml version=""1.0""?>\n<Clock xmlns:dt=""urn:schemas-microsoft-com:datatypes""><Description dt:dt=""string"">E-Prime Primary Realtime Clock</Description><StartTime><Timestamp dt:dt=""int"">0</Timestamp><DateUtc dt:dt=""string"">2016-12-23T06:24:51Z</DateUtc></StartTime><FrequencyChanges><FrequencyChange><Frequency dt:dt=""r8"">3579545</Frequency><Timestamp dt:dt=""r8"">69942940880</Timestamp><Current dt:dt=""r8"">0</Current><DateUtc dt:dt=""string"">2016-12-23T06:24:51Z</DateUtc></FrequencyChange></FrequencyChanges></Clock>\n",2016-12-23 14:24,74.894,1,1224146608,12-23-2016,14:24:51,6:24:51,72,a,,,,1,5,21,,,,,,,,,,,,0,,-999999,34,206311,1,660,206971,aexppro112,block2,,nv audio/a1_24k.wav
nv,14,1,"<?xml version=""1.0""?>\n<Clock xmlns:dt=""urn:schemas-microsoft-com:datatypes""><Description dt:dt=""string"">E-Prime Primary Realtime Clock</Description><StartTime><Timestamp dt:dt=""int"">0</Timestamp><DateUtc dt:dt=""string"">2016-12-23T06:24:51Z</DateUtc></StartTime><FrequencyChanges><FrequencyChange><Frequency dt:dt=""r8"">3579545</Frequency><Timestamp dt:dt=""r8"">69942940880</Timestamp><Current dt:dt=""r8"">0</Current><DateUtc dt:dt=""string"">2016-12-23T06:24:51Z</DateUtc></FrequencyChange></FrequencyChanges></Clock>\n",2016-12-23 14:24,74.894,1,1224146608,12-23-2016,14:24:51,6:24:51,73,i,,,,3,5,22,,,,,,,,,,,,0,,-999999,21,207499,1,967,208466,aexppro112,block2,,nv audio/i1_24k.wav
nv,14,1,"<?xml version=""1.0""?>\n<Clock xmlns:dt=""urn:schemas-microsoft-com:datatypes""><Description dt:dt=""string"">E-Prime Primary Realtime Clock</Description><StartTime><Timestamp dt:dt=""int"">0</Timestamp><DateUtc dt:dt=""string"">2016-12-23T06:24:51Z</DateUtc></StartTime><FrequencyChanges><FrequencyChange><Frequency dt:dt=""r8"">3579545</Frequency><Timestamp dt:dt=""r8"">69942940880</Timestamp><Current dt:dt=""r8"">0</Current><DateUtc dt:dt=""string"">2016-12-23T06:24:51Z</DateUtc></FrequencyChange></FrequencyChanges></Clock>\n",2016-12-23 14:24,74.894,1,1224146608,12-23-2016,14:24:51,6:24:51,74,v,,,,5,5,23,,,,,,,,,,,,0,,-999999,20,208994,1,904,209898,aexppro112,block2,,nv audio/y1_24k.wav
nv,14,1,"<?xml version=""1.0""?>\n<Clock xmlns:dt=""urn:schemas-microsoft-com:datatypes""><Description dt:dt=""string"">E-Prime Primary Realtime Clock</Description><StartTime><Timestamp dt:dt=""int"">0</Timestamp><DateUtc dt:dt=""string"">2016-12-23T06:24:51Z</DateUtc></StartTime><FrequencyChanges><FrequencyChange><Frequency dt:dt=""r8"">3579545</Frequency><Timestamp dt:dt=""r8"">69942940880</Timestamp><Current dt:dt=""r8"">0</Current><DateUtc dt:dt=""string"">2016-12-23T06:24:51Z</DateUtc></FrequencyChange></FrequencyChanges></Clock>\n",2016-12-23 14:24,74.894,1,1224146608,12-23-2016,14:24:51,6:24:51,75,e,,,,2,5,24,,,,,,,,,,,,0,,-999999,34,210436,1,738,211174,aexppro112,block2,,nv audio/e1_24k.wav
nv,14,1,"<?xml version=""1.0""?>\n<Clock xmlns:dt=""urn:schemas-microsoft-com:datatypes""><Description dt:dt=""string"">E-Prime Primary Realtime Clock</Description><StartTime><Timestamp dt:dt=""int"">0</Timestamp><DateUtc dt:dt=""string"">2016-12-23T06:24:51Z</DateUtc></StartTime><FrequencyChanges><FrequencyChange><Frequency dt:dt=""r8"">3579545</Frequency><Timestamp dt:dt=""r8"">69942940880</Timestamp><Current dt:dt=""r8"">0</Current><DateUtc dt:dt=""string"">2016-12-23T06:24:51Z</DateUtc></FrequencyChange></FrequencyChanges></Clock>\n",2016-12-23 14:24,74.894,1,1224146608,12-23-2016,14:24:51,6:24:51,76,u,,,,4,5,25,,,,,,,,,,,,0,,-999999,34,211718,1,592,212310,aexppro112,block2,,nv audio/u1_24k.wav
nv,14,1,"<?xml version=""1.0""?>\n<Clock xmlns:dt=""urn:schemas-microsoft-com:datatypes""><Description dt:dt=""string"">E-Prime Primary Realtime Clock</Description><StartTime><Timestamp dt:dt=""int"">0</Timestamp><DateUtc dt:dt=""string"">2016-12-23T06:24:51Z</DateUtc></StartTime><FrequencyChanges><FrequencyChange><Frequency dt:dt=""r8"">3579545</Frequency><Timestamp dt:dt=""r8"">69942940880</Timestamp><Current dt:dt=""r8"">0</Current><DateUtc dt:dt=""string"">2016-12-23T06:24:51Z</DateUtc></FrequencyChange></FrequencyChanges></Clock>\n",2016-12-23 14:24,74.894,1,1224146608,12-23-2016,14:24:51,6:24:51,77,a,,,,1,6,26,,,,,,,,,,,,0,,-999999,21,212840,1,717,213557,aexppro112,block2,,nv audio/a1_24k.wav
nv,14,1,"<?xml version=""1.0""?>\n<Clock xmlns:dt=""urn:schemas-microsoft-com:datatypes""><Description dt:dt=""string"">E-Prime Primary Realtime Clock</Description><StartTime><Timestamp dt:dt=""int"">0</Timestamp><DateUtc dt:dt=""string"">2016-12-23T06:24:51Z</DateUtc></StartTime><FrequencyChanges><FrequencyChange><Frequency dt:dt=""r8"">3579545</Frequency><Timestamp dt:dt=""r8"">69942940880</Timestamp><Current dt:dt=""r8"">0</Current><DateUtc dt:dt=""string"">2016-12-23T06:24:51Z</DateUtc></FrequencyChange></FrequencyChanges></Clock>\n",2016-12-23 14:24,74.894,1,1224146608,12-23-2016,14:24:51,6:24:51,78,i,,,,3,6,27,,,,,,,,,,,,0,,-999999,21,214082,1,589,214671,aexppro112,block2,,nv audio/i1_24k.wav
nv,14,1,"<?xml version=""1.0""?>\n<Clock xmlns:dt=""urn:schemas-microsoft-com:datatypes""><Description dt:dt=""string"">E-Prime Primary Realtime Clock</Description><StartTime><Timestamp dt:dt=""int"">0</Timestamp><DateUtc dt:dt=""string"">2016-12-23T06:24:51Z</DateUtc></StartTime><FrequencyChanges><FrequencyChange><Frequency dt:dt=""r8"">3579545</Frequency><Timestamp dt:dt=""r8"">69942940880</Timestamp><Current dt:dt=""r8"">0</Current><DateUtc dt:dt=""string"">2016-12-23T06:24:51Z</DateUtc></FrequencyChange></FrequencyChanges></Clock>\n",2016-12-23 14:24,74.894,1,1224146608,12-23-2016,14:24:51,6:24:51,79,e,,,,2,6,28,,,,,,,,,,,,0,,-999999,48,215230,1,401,215631,aexppro112,block2,,nv audio/e1_24k.wav
nv,14,1,"<?xml version=""1.0""?>\n<Clock xmlns:dt=""urn:schemas-microsoft-com:datatypes""><Description dt:dt=""string"">E-Prime Primary Realtime Clock</Description><StartTime><Timestamp dt:dt=""int"">0</Timestamp><DateUtc dt:dt=""string"">2016-12-23T06:24:51Z</DateUtc></StartTime><FrequencyChanges><FrequencyChange><Frequency dt:dt=""r8"">3579545</Frequency><Timestamp dt:dt=""r8"">69942940880</Timestamp><Current dt:dt=""r8"">0</Current><DateUtc dt:dt=""string"">2016-12-23T06:24:51Z</DateUtc></FrequencyChange></FrequencyChanges></Clock>\n",2016-12-23 14:24,74.894,1,1224146608,12-23-2016,14:24:51,6:24:51,80,u,,,,4,6,29,,,,,,,,,,,,0,,-999999,21,216165,1,757,216922,aexppro112,block2,,nv audio/u1_24k.wav
nv,14,1,"<?xml version=""1.0""?>\n<Clock xmlns:dt=""urn:schemas-microsoft-com:datatypes""><Description dt:dt=""string"">E-Prime Primary Realtime Clock</Description><StartTime><Timestamp dt:dt=""int"">0</Timestamp><DateUtc dt:dt=""string"">2016-12-23T06:24:51Z</DateUtc></StartTime><FrequencyChanges><FrequencyChange><Frequency dt:dt=""r8"">3579545</Frequency><Timestamp dt:dt=""r8"">69942940880</Timestamp><Current dt:dt=""r8"">0</Current><DateUtc dt:dt=""string"">2016-12-23T06:24:51Z</DateUtc></FrequencyChange></FrequencyChanges></Clock>\n",2016-12-23 14:24,74.894,1,1224146608,12-23-2016,14:24:51,6:24:51,81,v,,,,5,6,30,,,,,,,,,,,,0,,-999999,20,217446,1,1035,218481,aexppro112,block2,,nv audio/y1_24k.wav
nv,14,1,"<?xml version=""1.0""?>\n<Clock xmlns:dt=""urn:schemas-microsoft-com:datatypes""><Description dt:dt=""string"">E-Prime Primary Realtime Clock</Description><StartTime><Timestamp dt:dt=""int"">0</Timestamp><DateUtc dt:dt=""string"">2016-12-23T06:24:51Z</DateUtc></StartTime><FrequencyChanges><FrequencyChange><Frequency dt:dt=""r8"">3579545</Frequency><Timestamp dt:dt=""r8"">69942940880</Timestamp><Current dt:dt=""r8"">0</Current><DateUtc dt:dt=""string"">2016-12-23T06:24:51Z</DateUtc></FrequencyChange></FrequencyChanges></Clock>\n",2016-12-23 14:24,74.894,1,1224146608,12-23-2016,14:24:51,6:24:51,82,v,,,,5,7,31,,,,,,,,,,,,0,,-999999,21,219009,1,1374,220383,aexppro112,block2,,nv audio/y1_24k.wav
nv,14,1,"<?xml version=""1.0""?>\n<Clock xmlns:dt=""urn:schemas-microsoft-com:datatypes""><Description dt:dt=""string"">E-Prime Primary Realtime Clock</Description><StartTime><Timestamp dt:dt=""int"">0</Timestamp><DateUtc dt:dt=""string"">2016-12-23T06:24:51Z</DateUtc></StartTime><FrequencyChanges><FrequencyChange><Frequency dt:dt=""r8"">3579545</Frequency><Timestamp dt:dt=""r8"">69942940880</Timestamp><Current dt:dt=""r8"">0</Current><DateUtc dt:dt=""string"">2016-12-23T06:24:51Z</DateUtc></FrequencyChange></FrequencyChanges></Clock>\n",2016-12-23 14:24,74.894,1,1224146608,12-23-2016,14:24:51,6:24:51,83,u,,,,4,7,32,,,,,,,,,,,,0,,-999999,21,220905,1,1089,221994,aexppro112,block2,,nv audio/u1_24k.wav
nv,14,1,"<?xml version=""1.0""?>\n<Clock xmlns:dt=""urn:schemas-microsoft-com:datatypes""><Description dt:dt=""string"">E-Prime Primary Realtime Clock</Description><StartTime><Timestamp dt:dt=""int"">0</Timestamp><DateUtc dt:dt=""string"">2016-12-23T06:24:51Z</DateUtc></StartTime><FrequencyChanges><FrequencyChange><Frequency dt:dt=""r8"">3579545</Frequency><Timestamp dt:dt=""r8"">69942940880</Timestamp><Current dt:dt=""r8"">0</Current><DateUtc dt:dt=""string"">2016-12-23T06:24:51Z</DateUtc></FrequencyChange></FrequencyChanges></Clock>\n",2016-12-23 14:24,74.894,1,1224146608,12-23-2016,14:24:51,6:24:51,84,e,,,,2,7,33,,,,,,,,,,,,0,,-999999,21,222520,1,1467,223987,aexppro112,block2,,nv audio/e1_24k.wav
nv,14,1,"<?xml version=""1.0""?>\n<Clock xmlns:dt=""urn:schemas-microsoft-com:datatypes""><Description dt:dt=""string"">E-Prime Primary Realtime Clock</Description><StartTime><Timestamp dt:dt=""int"">0</Timestamp><DateUtc dt:dt=""string"">2016-12-23T06:24:51Z</DateUtc></StartTime><FrequencyChanges><FrequencyChange><Frequency dt:dt=""r8"">3579545</Frequency><Timestamp dt:dt=""r8"">69942940880</Timestamp><Current dt:dt=""r8"">0</Current><DateUtc dt:dt=""string"">2016-12-23T06:24:51Z</DateUtc></FrequencyChange></FrequencyChanges></Clock>\n",2016-12-23 14:24,74.894,1,1224146608,12-23-2016,14:24:51,6:24:51,85,a,,,,1,7,34,,,,,,,,,,,,0,,-999999,21,224510,1,651,225161,aexppro112,block2,,nv audio/a1_24k.wav
nv,14,1,"<?xml version=""1.0""?>\n<Clock xmlns:dt=""urn:schemas-microsoft-com:datatypes""><Description dt:dt=""string"">E-Prime Primary Realtime Clock</Description><StartTime><Timestamp dt:dt=""int"">0</Timestamp><DateUtc dt:dt=""string"">2016-12-23T06:24:51Z</DateUtc></StartTime><FrequencyChanges><FrequencyChange><Frequency dt:dt=""r8"">3579545</Frequency><Timestamp dt:dt=""r8"">69942940880</Timestamp><Current dt:dt=""r8"">0</Current><DateUtc dt:dt=""string"">2016-12-23T06:24:51Z</DateUtc></FrequencyChange></FrequencyChanges></Clock>\n",2016-12-23 14:24,74.894,1,1224146608,12-23-2016,14:24:51,6:24:51,86,i,,,,3,7,35,,,,,,,,,,,,0,,-999999,21,225685,1,551,226236,aexppro112,block2,,nv audio/i1_24k.wav
nv,14,1,"<?xml version=""1.0""?>\n<Clock xmlns:dt=""urn:schemas-microsoft-com:datatypes""><Description dt:dt=""string"">E-Prime Primary Realtime Clock</Description><StartTime><Timestamp dt:dt=""int"">0</Timestamp><DateUtc dt:dt=""string"">2016-12-23T06:24:51Z</DateUtc></StartTime><FrequencyChanges><FrequencyChange><Frequency dt:dt=""r8"">3579545</Frequency><Timestamp dt:dt=""r8"">69942940880</Timestamp><Current dt:dt=""r8"">0</Current><DateUtc dt:dt=""string"">2016-12-23T06:24:51Z</DateUtc></FrequencyChange></FrequencyChanges></Clock>\n",2016-12-23 14:24,74.894,1,1224146608,12-23-2016,14:24:51,6:24:51,87,e,,,,2,8,36,,,,,,,,,,,,0,,-999999,48,226793,1,1358,228151,aexppro112,block2,,nv audio/e1_24k.wav
nv,14,1,"<?xml version=""1.0""?>\n<Clock xmlns:dt=""urn:schemas-microsoft-com:datatypes""><Description dt:dt=""string"">E-Prime Primary Realtime Clock</Description><StartTime><Timestamp dt:dt=""int"">0</Timestamp><DateUtc dt:dt=""string"">2016-12-23T06:24:51Z</DateUtc></StartTime><FrequencyChanges><FrequencyChange><Frequency dt:dt=""r8"">3579545</Frequency><Timestamp dt:dt=""r8"">69942940880</Timestamp><Current dt:dt=""r8"">0</Current><DateUtc dt:dt=""string"">2016-12-23T06:24:51Z</DateUtc></FrequencyChange></FrequencyChanges></Clock>\n",2016-12-23 14:24,74.894,1,1224146608,12-23-2016,14:24:51,6:24:51,88,i,,,,3,8,37,,,,,,,,,,,,0,,-999999,20,228675,1,596,229271,aexppro112,block2,,nv audio/i1_24k.wav
nv,14,1,"<?xml version=""1.0""?>\n<Clock xmlns:dt=""urn:schemas-microsoft-com:datatypes""><Description dt:dt=""string"">E-Prime Primary Realtime Clock</Description><StartTime><Timestamp dt:dt=""int"">0</Timestamp><DateUtc dt:dt=""string"">2016-12-23T06:24:51Z</DateUtc></StartTime><FrequencyChanges><FrequencyChange><Frequency dt:dt=""r8"">3579545</Frequency><Timestamp dt:dt=""r8"">69942940880</Timestamp><Current dt:dt=""r8"">0</Current><DateUtc dt:dt=""string"">2016-12-23T06:24:51Z</DateUtc></FrequencyChange></FrequencyChanges></Clock>\n",2016-12-23 14:24,74.894,1,1224146608,12-23-2016,14:24:51,6:24:51,89,v,,,,5,8,38,,,,,,,,,,,,0,,-999999,48,229824,1,804,230628,aexppro112,block2,,nv audio/y1_24k.wav
nv,14,1,"<?xml version=""1.0""?>\n<Clock xmlns:dt=""urn:schemas-microsoft-com:datatypes""><Description dt:dt=""string"">E-Prime Primary Realtime Clock</Description><StartTime><Timestamp dt:dt=""int"">0</Timestamp><DateUtc dt:dt=""string"">2016-12-23T06:24:51Z</DateUtc></StartTime><FrequencyChanges><FrequencyChange><Frequency dt:dt=""r8"">3579545</Frequency><Timestamp dt:dt=""r8"">69942940880</Timestamp><Current dt:dt=""r8"">0</Current><DateUtc dt:dt=""string"">2016-12-23T06:24:51Z</DateUtc></FrequencyChange></FrequencyChanges></Clock>\n",2016-12-23 14:24,74.894,1,1224146608,12-23-2016,14:24:51,6:24:51,90,u,,,,4,8,39,,,,,,,,,,,,0,,-999999,21,231159,1,701,231860,aexppro112,block2,,nv audio/u1_24k.wav
nv,14,1,"<?xml version=""1.0""?>\n<Clock xmlns:dt=""urn:schemas-microsoft-com:datatypes""><Description dt:dt=""string"">E-Prime Primary Realtime Clock</Description><StartTime><Timestamp dt:dt=""int"">0</Timestamp><DateUtc dt:dt=""string"">2016-12-23T06:24:51Z</DateUtc></StartTime><FrequencyChanges><FrequencyChange><Frequency dt:dt=""r8"">3579545</Frequency><Timestamp dt:dt=""r8"">69942940880</Timestamp><Current dt:dt=""r8"">0</Current><DateUtc dt:dt=""string"">2016-12-23T06:24:51Z</DateUtc></FrequencyChange></FrequencyChanges></Clock>\n",2016-12-23 14:24,74.894,1,1224146608,12-23-2016,14:24:51,6:24:51,91,a,,,,1,8,40,,,,,,,,,,,,0,,-999999,20,232387,1,660,233047,aexppro112,block2,,nv audio/a1_24k.wav
nv,14,1,"<?xml version=""1.0""?>\n<Clock xmlns:dt=""urn:schemas-microsoft-com:datatypes""><Description dt:dt=""string"">E-Prime Primary Realtime Clock</Description><StartTime><Timestamp dt:dt=""int"">0</Timestamp><DateUtc dt:dt=""string"">2016-12-23T06:24:51Z</DateUtc></StartTime><FrequencyChanges><FrequencyChange><Frequency dt:dt=""r8"">3579545</Frequency><Timestamp dt:dt=""r8"">69942940880</Timestamp><Current dt:dt=""r8"">0</Current><DateUtc dt:dt=""string"">2016-12-23T06:24:51Z</DateUtc></FrequencyChange></FrequencyChanges></Clock>\n",2016-12-23 14:24,74.894,1,1224146608,12-23-2016,14:24:51,6:24:51,92,u,,,,4,9,41,,,,,,,,,,,,0,,-999999,21,233576,1,1020,234596,aexppro112,block2,,nv audio/u1_24k.wav
nv,14,1,"<?xml version=""1.0""?>\n<Clock xmlns:dt=""urn:schemas-microsoft-com:datatypes""><Description dt:dt=""string"">E-Prime Primary Realtime Clock</Description><StartTime><Timestamp dt:dt=""int"">0</Timestamp><DateUtc dt:dt=""string"">2016-12-23T06:24:51Z</DateUtc></StartTime><FrequencyChanges><FrequencyChange><Frequency dt:dt=""r8"">3579545</Frequency><Timestamp dt:dt=""r8"">69942940880</Timestamp><Current dt:dt=""r8"">0</Current><DateUtc dt:dt=""string"">2016-12-23T06:24:51Z</DateUtc></FrequencyChange></FrequencyChanges></Clock>\n",2016-12-23 14:24,74.894,1,1224146608,12-23-2016,14:24:51,6:24:51,93,v,,,,5,9,42,,,,,,,,,,,,0,,-999999,47,235151,1,802,235953,aexppro112,block2,,nv audio/y1_24k.wav
nv,14,1,"<?xml version=""1.0""?>\n<Clock xmlns:dt=""urn:schemas-microsoft-com:datatypes""><Description dt:dt=""string"">E-Prime Primary Realtime Clock</Description><StartTime><Timestamp dt:dt=""int"">0</Timestamp><DateUtc dt:dt=""string"">2016-12-23T06:24:51Z</DateUtc></StartTime><FrequencyChanges><FrequencyChange><Frequency dt:dt=""r8"">3579545</Frequency><Timestamp dt:dt=""r8"">69942940880</Timestamp><Current dt:dt=""r8"">0</Current><DateUtc dt:dt=""string"">2016-12-23T06:24:51Z</DateUtc></FrequencyChange></FrequencyChanges></Clock>\n",2016-12-23 14:24,74.894,1,1224146608,12-23-2016,14:24:51,6:24:51,94,i,,,,3,9,43,,,,,,,,,,,,0,,-999999,34,236500,1,467,236967,aexppro112,block2,,nv audio/i1_24k.wav
nv,14,1,"<?xml version=""1.0""?>\n<Clock xmlns:dt=""urn:schemas-microsoft-com:datatypes""><Description dt:dt=""string"">E-Prime Primary Realtime Clock</Description><StartTime><Timestamp dt:dt=""int"">0</Timestamp><DateUtc dt:dt=""string"">2016-12-23T06:24:51Z</DateUtc></StartTime><FrequencyChanges><FrequencyChange><Frequency dt:dt=""r8"">3579545</Frequency><Timestamp dt:dt=""r8"">69942940880</Timestamp><Current dt:dt=""r8"">0</Current><DateUtc dt:dt=""string"">2016-12-23T06:24:51Z</DateUtc></FrequencyChange></FrequencyChanges></Clock>\n",2016-12-23 14:24,74.894,1,1224146608,12-23-2016,14:24:51,6:24:51,95,e,,,,2,9,44,,,,,,,,,,,,0,,-999999,34,237515,1,1217,238732,aexppro112,block2,,nv audio/e1_24k.wav
nv,14,1,"<?xml version=""1.0""?>\n<Clock xmlns:dt=""urn:schemas-microsoft-com:datatypes""><Description dt:dt=""string"">E-Prime Primary Realtime Clock</Description><StartTime><Timestamp dt:dt=""int"">0</Timestamp><DateUtc dt:dt=""string"">2016-12-23T06:24:51Z</DateUtc></StartTime><FrequencyChanges><FrequencyChange><Frequency dt:dt=""r8"">3579545</Frequency><Timestamp dt:dt=""r8"">69942940880</Timestamp><Current dt:dt=""r8"">0</Current><DateUtc dt:dt=""string"">2016-12-23T06:24:51Z</DateUtc></FrequencyChange></FrequencyChanges></Clock>\n",2016-12-23 14:24,74.894,1,1224146608,12-23-2016,14:24:51,6:24:51,96,a,,,,1,9,45,,,,,,,,,,,,0,,-999999,21,239264,1,667,239931,aexppro112,block2,,nv audio/a1_24k.wav
nv,14,1,"<?xml version=""1.0""?>\n<Clock xmlns:dt=""urn:schemas-microsoft-com:datatypes""><Description dt:dt=""string"">E-Prime Primary Realtime Clock</Description><StartTime><Timestamp dt:dt=""int"">0</Timestamp><DateUtc dt:dt=""string"">2016-12-23T06:24:51Z</DateUtc></StartTime><FrequencyChanges><FrequencyChange><Frequency dt:dt=""r8"">3579545</Frequency><Timestamp dt:dt=""r8"">69942940880</Timestamp><Current dt:dt=""r8"">0</Current><DateUtc dt:dt=""string"">2016-12-23T06:24:51Z</DateUtc></FrequencyChange></FrequencyChanges></Clock>\n",2016-12-23 14:24,74.894,1,1224146608,12-23-2016,14:24:51,6:24:51,97,v,,,,5,10,46,,,,,,,,,,,,0,,-999999,20,240465,1,1165,241630,aexppro112,block2,,nv audio/y1_24k.wav
nv,14,1,"<?xml version=""1.0""?>\n<Clock xmlns:dt=""urn:schemas-microsoft-com:datatypes""><Description dt:dt=""string"">E-Prime Primary Realtime Clock</Description><StartTime><Timestamp dt:dt=""int"">0</Timestamp><DateUtc dt:dt=""string"">2016-12-23T06:24:51Z</DateUtc></StartTime><FrequencyChanges><FrequencyChange><Frequency dt:dt=""r8"">3579545</Frequency><Timestamp dt:dt=""r8"">69942940880</Timestamp><Current dt:dt=""r8"">0</Current><DateUtc dt:dt=""string"">2016-12-23T06:24:51Z</DateUtc></FrequencyChange></FrequencyChanges></Clock>\n",2016-12-23 14:24,74.894,1,1224146608,12-23-2016,14:24:51,6:24:51,98,u,,,,4,10,47,,,,,,,,,,,,0,,-999999,21,242161,1,753,242914,aexppro112,block2,,nv audio/u1_24k.wav
nv,14,1,"<?xml version=""1.0""?>\n<Clock xmlns:dt=""urn:schemas-microsoft-com:datatypes""><Description dt:dt=""string"">E-Prime Primary Realtime Clock</Description><StartTime><Timestamp dt:dt=""int"">0</Timestamp><DateUtc dt:dt=""string"">2016-12-23T06:24:51Z</DateUtc></StartTime><FrequencyChanges><FrequencyChange><Frequency dt:dt=""r8"">3579545</Frequency><Timestamp dt:dt=""r8"">69942940880</Timestamp><Current dt:dt=""r8"">0</Current><DateUtc dt:dt=""string"">2016-12-23T06:24:51Z</DateUtc></FrequencyChange></FrequencyChanges></Clock>\n",2016-12-23 14:24,74.894,1,1224146608,12-23-2016,14:24:51,6:24:51,99,a,,,,1,10,48,,,,,,,,,,,,0,,-999999,21,243443,1,695,244138,aexppro112,block2,,nv audio/a1_24k.wav
nv,14,1,"<?xml version=""1.0""?>\n<Clock xmlns:dt=""urn:schemas-microsoft-com:datatypes""><Description dt:dt=""string"">E-Prime Primary Realtime Clock</Description><StartTime><Timestamp dt:dt=""int"">0</Timestamp><DateUtc dt:dt=""string"">2016-12-23T06:24:51Z</DateUtc></StartTime><FrequencyChanges><FrequencyChange><Frequency dt:dt=""r8"">3579545</Frequency><Timestamp dt:dt=""r8"">69942940880</Timestamp><Current dt:dt=""r8"">0</Current><DateUtc dt:dt=""string"">2016-12-23T06:24:51Z</DateUtc></FrequencyChange></FrequencyChanges></Clock>\n",2016-12-23 14:24,74.894,1,1224146608,12-23-2016,14:24:51,6:24:51,100,i,,,,3,10,49,,,,,,,,,,,,0,,-999999,47,244698,1,629,245327,aexppro112,block2,,nv audio/i1_24k.wav
nv,14,1,"<?xml version=""1.0""?>\n<Clock xmlns:dt=""urn:schemas-microsoft-com:datatypes""><Description dt:dt=""string"">E-Prime Primary Realtime Clock</Description><StartTime><Timestamp dt:dt=""int"">0</Timestamp><DateUtc dt:dt=""string"">2016-12-23T06:24:51Z</DateUtc></StartTime><FrequencyChanges><FrequencyChange><Frequency dt:dt=""r8"">3579545</Frequency><Timestamp dt:dt=""r8"">69942940880</Timestamp><Current dt:dt=""r8"">0</Current><DateUtc dt:dt=""string"">2016-12-23T06:24:51Z</DateUtc></FrequencyChange></FrequencyChanges></Clock>\n",2016-12-23 14:24,74.894,1,1224146608,12-23-2016,14:24:51,6:24:51,101,e,,,,2,10,50,,,,,,,,,,,,0,,-999999,34,245873,1,968,246841,aexppro112,block2,,nv audio/e1_24k.wav
