ExperimentName,Subject,Session,Clock.Information,Clock.StartTimeOfDay,Display.RefreshRate,Group,RandomSeed,SessionDate,SessionTime,SessionTimeUtc,Block,answer1[Block],block1,block1.Cycle,block1.Sample,block2,block2.Cycle,block2.Sample,lx,lx.Cycle,lx.Sample,panel1111.ACC,panel1111.CRESP,panel1111.DurationError,panel1111.OnsetDelay,panel1111.OnsetTime,panel1111.RESP,panel1111.RT,panel1111.RTTime,panel1121.ACC,panel1121.CRESP,panel1121.DurationError,panel1121.OnsetDelay,panel1121.OnsetTime,panel1121.RESP,panel1121.RT,panel1121.RTTime,Procedure[Block],Running[Block],sound111,sound112,Trial,answer1[Trial],lxlist,lxlist.Cycle,lxlist.Sample,lxpanel1.ACC,lxpanel1.CRESP,lxpanel1.DurationError,lxpanel1.OnsetDelay,lxpanel1.OnsetTime,lxpanel1.RESP,lxpanel1.RT,lxpanel1.RTTime,lxsound,Procedure[Trial],Running[Trial]
nv,13,1,"<?xml version=""1.0""?>\n<Clock xmlns:dt=""urn:schemas-microsoft-com:datatypes""><Description dt:dt=""string"">E-Prime Primary Realtime Clock</Description><StartTime><Timestamp dt:dt=""int"">0</Timestamp><DateUtc dt:dt=""string"">2016-12-22T07:24:38Z</DateUtc></StartTime><FrequencyChanges><FrequencyChange><Frequency dt:dt=""r8"">3579545</Frequency><Timestamp dt:dt=""r8"">80189032798</Timestamp><Current dt:dt=""r8"">0</Current><DateUtc dt:dt=""string"">2016-12-22T07:24:38Z</DateUtc></FrequencyChange></FrequencyChanges></Clock>\n",2016-12-22 15:24,84.838,1,-1414621576,12-22-2016,15:24:38,7:24:38,1,,,,,,,,1,1,1,,,,,,,,,,,,,,,,,lxProc,lx,,,1,lxhad,10,1,1,0,,-999999,110,44972,1,2862,47834,nv audio/hood.wav,lxpro1,lxlist
nv,13,1,"<?xml version=""1.0""?>\n<Clock xmlns:dt=""urn:schemas-microsoft-com:datatypes""><Description dt:dt=""string"">E-Prime Primary Realtime Clock</Description><StartTime><Timestamp dt:dt=""int"">0</Timestamp><DateUtc dt:dt=""string"">2016-12-22T07:24:38Z</DateUtc></StartTime><FrequencyChanges><FrequencyChange><Frequency dt:dt=""r8"">3579545</Frequency><Timestamp dt:dt=""r8"">80189032798</Timestamp><Current dt:dt=""r8"">0</Current><DateUtc dt:dt=""string"">2016-12-22T07:24:38Z</DateUtc></FrequencyChange></FrequencyChanges></Clock>\n",2016-12-22 15:24,84.838,1,-1414621576,12-22-2016,15:24:38,7:24:38,1,,,,,,,,1,1,1,,,,,,,,,,,,,,,,,lxProc,lx,,,2,lxhad,3,1,2,0,,-999999,89,48425,1,2770,51195,nv audio/hayed.wav,lxpro1,lxlist
nv,13,1,"<?xml version=""1.0""?>\n<Clock xmlns:dt=""urn:schemas-microsoft-com:datatypes""><Description dt:dt=""string"">E-Prime Primary Realtime Clock</Description><StartTime><Timestamp dt:dt=""int"">0</Timestamp><DateUtc dt:dt=""string"">2016-12-22T07:24:38Z</DateUtc></StartTime><FrequencyChanges><FrequencyChange><Frequency dt:dt=""r8"">3579545</Frequency><Timestamp dt:dt=""r8"">80189032798</Timestamp><Current dt:dt=""r8"">0</Current><DateUtc dt:dt=""string"">2016-12-22T07:24:38Z</DateUtc></FrequencyChange></FrequencyChanges></Clock>\n",2016-12-22 15:24,84.838,1,-1414621576,12-22-2016,15:24:38,7:24:38,1,,,,,,,,1,1,1,,,,,,,,,,,,,,,,,lxProc,lx,,,3,lxhood,12,1,3,0,,-999999,66,51773,1,1937,53710,nv audio/whod.wav,lxpro1,lxlist
nv,13,1,"<?xml version=""1.0""?>\n<Clock xmlns:dt=""urn:schemas-microsoft-com:datatypes""><Description dt:dt=""string"">E-Prime Primary Realtime Clock</Description><StartTime><Timestamp dt:dt=""int"">0</Timestamp><DateUtc dt:dt=""string"">2016-12-22T07:24:38Z</DateUtc></StartTime><FrequencyChanges><FrequencyChange><Frequency dt:dt=""r8"">3579545</Frequency><Timestamp dt:dt=""r8"">80189032798</Timestamp><Current dt:dt=""r8"">0</Current><DateUtc dt:dt=""string"">2016-12-22T07:24:38Z</DateUtc></FrequencyChange></FrequencyChanges></Clock>\n",2016-12-22 15:24,84.838,1,-1414621576,12-22-2016,15:24:38,7:24:38,1,,,,,,,,1,1,1,,,,,,,,,,,,,,,,,lxProc,lx,,,4,lxhead,7,1,4,0,,-999999,89,54307,1,3321,57628,nv audio/hid.wav,lxpro1,lxlist
nv,13,1,"<?xml version=""1.0""?>\n<Clock xmlns:dt=""urn:schemas-microsoft-com:datatypes""><Description dt:dt=""string"">E-Prime Primary Realtime Clock</Description><StartTime><Timestamp dt:dt=""int"">0</Timestamp><DateUtc dt:dt=""string"">2016-12-22T07:24:38Z</DateUtc></StartTime><FrequencyChanges><FrequencyChange><Frequency dt:dt=""r8"">3579545</Frequency><Timestamp dt:dt=""r8"">80189032798</Timestamp><Current dt:dt=""r8"">0</Current><DateUtc dt:dt=""string"">2016-12-22T07:24:38Z</DateUtc></FrequencyChange></FrequencyChanges></Clock>\n",2016-12-22 15:24,84.838,1,-1414621576,12-22-2016,15:24:38,7:24:38,1,,,,,,,,1,1,1,,,,,,,,,,,,,,,,,lxProc,lx,,,5,lxhead,4,1,5,0,,-999999,78,58209,1,2002,60211,nv audio/head.wav,lxpro1,lxlist
nv,13,1,"<?xml version=""1.0""?>\n<Clock xmlns:dt=""urn:schemas-microsoft-com:datatypes""><Description dt:dt=""string"">E-Prime Primary Realtime Clock</Description><StartTime><Timestamp dt:dt=""int"">0</Timestamp><DateUtc dt:dt=""string"">2016-12-22T07:24:38Z</DateUtc></StartTime><FrequencyChanges><FrequencyChange><Frequency dt:dt=""r8"">3579545</Frequency><Timestamp dt:dt=""r8"">80189032798</Timestamp><Current dt:dt=""r8"">0</Current><DateUtc dt:dt=""string"">2016-12-22T07:24:38Z</DateUtc></FrequencyChange></FrequencyChanges></Clock>\n",2016-12-22 15:24,84.838,1,-1414621576,12-22-2016,15:24:38,7:24:38,1,,,,,,,,1,1,1,,,,,,,,,,,,,,,,,lxProc,lx,,,6,lxhad,1,1,6,0,,-999999,78,60802,1,3441,64243,nv audio/had.wav,lxpro1,lxlist
nv,13,1,"<?xml version=""1.0""?>\n<Clock xmlns:dt=""urn:schemas-microsoft-com:datatypes""><Description dt:dt=""string"">E-Prime Primary Realtime Clock</Description><StartTime><Timestamp dt:dt=""int"">0</Timestamp><DateUtc dt:dt=""string"">2016-12-22T07:24:38Z</DateUtc></StartTime><FrequencyChanges><FrequencyChange><Frequency dt:dt=""r8"">3579545</Frequency><Timestamp dt:dt=""r8"">80189032798</Timestamp><Current dt:dt=""r8"">0</Current><DateUtc dt:dt=""string"">2016-12-22T07:24:38Z</DateUtc></FrequencyChange></FrequencyChanges></Clock>\n",2016-12-22 15:24,84.838,1,-1414621576,12-22-2016,15:24:38,7:24:38,1,,,,,,,,1,1,1,,,,,,,,,,,,,,,,,lxProc,lx,,,7,lxhud,2,1,7,0,,-999999,77,64833,1,1545,66378,nv audio/hawed.wav,lxpro1,lxlist
nv,13,1,"<?xml version=""1.0""?>\n<Clock xmlns:dt=""urn:schemas-microsoft-com:datatypes""><Description dt:dt=""string"">E-Prime Primary Realtime Clock</Description><StartTime><Timestamp dt:dt=""int"">0</Timestamp><DateUtc dt:dt=""string"">2016-12-22T07:24:38Z</DateUtc></StartTime><FrequencyChanges><FrequencyChange><Frequency dt:dt=""r8"">3579545</Frequency><Timestamp dt:dt=""r8"">80189032798</Timestamp><Current dt:dt=""r8"">0</Current><DateUtc dt:dt=""string"">2016-12-22T07:24:38Z</DateUtc></FrequencyChange></FrequencyChanges></Clock>\n",2016-12-22 15:24,84.838,1,-1414621576,12-22-2016,15:24:38,7:24:38,1,,,,,,,,1,1,1,,,,,,,,,,,,,,,,,lxProc,lx,,,8,lxhod,9,1,8,0,,-999999,66,66955,1,2192,69147,nv audio/hoed.wav,lxpro1,lxlist
nv,13,1,"<?xml version=""1.0""?>\n<Clock xmlns:dt=""urn:schemas-microsoft-com:datatypes""><Description dt:dt=""string"">E-Prime Primary Realtime Clock</Description><StartTime><Timestamp dt:dt=""int"">0</Timestamp><DateUtc dt:dt=""string"">2016-12-22T07:24:38Z</DateUtc></StartTime><FrequencyChanges><FrequencyChange><Frequency dt:dt=""r8"">3579545</Frequency><Timestamp dt:dt=""r8"">80189032798</Timestamp><Current dt:dt=""r8"">0</Current><DateUtc dt:dt=""string"">2016-12-22T07:24:38Z</DateUtc></FrequencyChange></FrequencyChanges></Clock>\n",2016-12-22 15:24,84.838,1,-1414621576,12-22-2016,15:24:38,7:24:38,1,,,,,,,,1,1,1,,,,,,,,,,,,,,,,,lxProc,lx,,,9,lxhud,8,1,9,0,,-999999,66,69725,1,1204,70929,nv audio/hod.wav,lxpro1,lxlist
nv,13,1,"<?xml version=""1.0""?>\n<Clock xmlns:dt=""urn:schemas-microsoft-com:datatypes""><Description dt:dt=""string"">E-Prime Primary Realtime Clock</Description><StartTime><Timestamp dt:dt=""int"">0</Timestamp><DateUtc dt:dt=""string"">2016-12-22T07:24:38Z</DateUtc></StartTime><FrequencyChanges><FrequencyChange><Frequency dt:dt=""r8"">3579545</Frequency><Timestamp dt:dt=""r8"">80189032798</Timestamp><Current dt:dt=""r8"">0</Current><DateUtc dt:dt=""string"">2016-12-22T07:24:38Z</DateUtc></FrequencyChange></FrequencyChanges></Clock>\n",2016-12-22 15:24,84.838,1,-1414621576,12-22-2016,15:24:38,7:24:38,1,,,,,,,,1,1,1,,,,,,,,,,,,,,,,,lxProc,lx,,,10,lxhoed,5,1,10,0,,-999999,66,71505,1,2571,74076,nv audio/heard.wav,lxpro1,lxlist
nv,13,1,"<?xml version=""1.0""?>\n<Clock xmlns:dt=""urn:schemas-microsoft-com:datatypes""><Description dt:dt=""string"">E-Prime Primary Realtime Clock</Description><StartTime><Timestamp dt:dt=""int"">0</Timestamp><DateUtc dt:dt=""string"">2016-12-22T07:24:38Z</DateUtc></StartTime><FrequencyChanges><FrequencyChange><Frequency dt:dt=""r8"">3579545</Frequency><Timestamp dt:dt=""r8"">80189032798</Timestamp><Current dt:dt=""r8"">0</Current><DateUtc dt:dt=""string"">2016-12-22T07:24:38Z</DateUtc></FrequencyChange></FrequencyChanges></Clock>\n",2016-12-22 15:24,84.838,1,-1414621576,12-22-2016,15:24:38,7:24:38,1,,,,,,,,1,1,1,,,,,,,,,,,,,,,,,lxProc,lx,,,11,lxhud,11,1,11,0,,-999999,42,74628,1,2751,77379,nv audio/hud.wav,lxpro1,lxlist
nv,13,1,"<?xml version=""1.0""?>\n<Clock xmlns:dt=""urn:schemas-microsoft-com:datatypes""><Description dt:dt=""string"">E-Prime Primary Realtime Clock</Description><StartTime><Timestamp dt:dt=""int"">0</Timestamp><DateUtc dt:dt=""string"">2016-12-22T07:24:38Z</DateUtc></StartTime><FrequencyChanges><FrequencyChange><Frequency dt:dt=""r8"">3579545</Frequency><Timestamp dt:dt=""r8"">80189032798</Timestamp><Current dt:dt=""r8"">0</Current><DateUtc dt:dt=""string"">2016-12-22T07:24:38Z</DateUtc></FrequencyChange></FrequencyChanges></Clock>\n",2016-12-22 15:24,84.838,1,-1414621576,12-22-2016,15:24:38,7:24:38,1,,,,,,,,1,1,1,,,,,,,,,,,,,,,,,lxProc,lx,,,12,lxheed,6,1,12,0,,-999999,54,77940,1,1222,79162,nv audio/heed.wav,lxpro1,lxlist
nv,13,1,"<?xml version=""1.0""?>\n<Clock xmlns:dt=""urn:schemas-microsoft-com:datatypes""><Description dt:dt=""string"">E-Prime Primary Realtime Clock</Description><StartTime><Timestamp dt:dt=""int"">0</Timestamp><DateUtc dt:dt=""string"">2016-12-22T07:24:38Z</DateUtc></StartTime><FrequencyChanges><FrequencyChange><Frequency dt:dt=""r8"">3579545</Frequency><Timestamp dt:dt=""r8"">80189032798</Timestamp><Current dt:dt=""r8"">0</Current><DateUtc dt:dt=""string"">2016-12-22T07:24:38Z</DateUtc></FrequencyChange></FrequencyChanges></Clock>\n",2016-12-22 15:24,84.838,1,-1414621576,12-22-2016,15:24:38,7:24:38,1,,,,,,,,1,1,1,,,,,,,,,,,,,,,,,lxProc,lx,,,13,lxheed,6,2,13,0,,-999999,42,79708,1,1014,80722,nv audio/heed.wav,lxpro1,lxlist
nv,13,1,"<?xml version=""1.0""?>\n<Clock xmlns:dt=""urn:schemas-microsoft-com:datatypes""><Description dt:dt=""string"">E-Prime Primary Realtime Clock</Description><StartTime><Timestamp dt:dt=""int"">0</Timestamp><DateUtc dt:dt=""string"">2016-12-22T07:24:38Z</DateUtc></StartTime><FrequencyChanges><FrequencyChange><Frequency dt:dt=""r8"">3579545</Frequency><Timestamp dt:dt=""r8"">80189032798</Timestamp><Current dt:dt=""r8"">0</Current><DateUtc dt:dt=""string"">2016-12-22T07:24:38Z</DateUtc></FrequencyChange></FrequencyChanges></Clock>\n",2016-12-22 15:24,84.838,1,-1414621576,12-22-2016,15:24:38,7:24:38,1,,,,,,,,1,1,1,,,,,,,,,,,,,,,,,lxProc,lx,,,14,lxhud,5,2,14,0,,-999999,54,81288,1,1399,82687,nv audio/heard.wav,lxpro1,lxlist
nv,13,1,"<?xml version=""1.0""?>\n<Clock xmlns:dt=""urn:schemas-microsoft-com:datatypes""><Description dt:dt=""string"">E-Prime Primary Realtime Clock</Description><StartTime><Timestamp dt:dt=""int"">0</Timestamp><DateUtc dt:dt=""string"">2016-12-22T07:24:38Z</DateUtc></StartTime><FrequencyChanges><FrequencyChange><Frequency dt:dt=""r8"">3579545</Frequency><Timestamp dt:dt=""r8"">80189032798</Timestamp><Current dt:dt=""r8"">0</Current><DateUtc dt:dt=""string"">2016-12-22T07:24:38Z</DateUtc></FrequencyChange></FrequencyChanges></Clock>\n",2016-12-22 15:24,84.838,1,-1414621576,12-22-2016,15:24:38,7:24:38,1,,,,,,,,1,1,1,,,,,,,,,,,,,,,,,lxProc,lx,,,15,lxhud,2,2,15,0,,-999999,65,83256,1,1518,84774,nv audio/hawed.wav,lxpro1,lxlist
nv,13,1,"<?xml version=""1.0""?>\n<Clock xmlns:dt=""urn:schemas-microsoft-com:datatypes""><Description dt:dt=""string"">E-Prime Primary Realtime Clock</Description><StartTime><Timestamp dt:dt=""int"">0</Timestamp><DateUtc dt:dt=""string"">2016-12-22T07:24:38Z</DateUtc></StartTime><FrequencyChanges><FrequencyChange><Frequency dt:dt=""r8"">3579545</Frequency><Timestamp dt:dt=""r8"">80189032798</Timestamp><Current dt:dt=""r8"">0</Current><DateUtc dt:dt=""string"">2016-12-22T07:24:38Z</DateUtc></FrequencyChange></FrequencyChanges></Clock>\n",2016-12-22 15:24,84.838,1,-1414621576,12-22-2016,15:24:38,7:24:38,1,,,,,,,,1,1,1,,,,,,,,,,,,,,,,,lxProc,lx,,,16,lxhud,8,2,16,0,,-999999,42,85319,1,853,86172,nv audio/hod.wav,lxpro1,lxlist
nv,13,1,"<?xml version=""1.0""?>\n<Clock xmlns:dt=""urn:schemas-microsoft-com:datatypes""><Description dt:dt=""string"">E-Prime Primary Realtime Clock</Description><StartTime><Timestamp dt:dt=""int"">0</Timestamp><DateUtc dt:dt=""string"">2016-12-22T07:24:38Z</DateUtc></StartTime><FrequencyChanges><FrequencyChange><Frequency dt:dt=""r8"">3579545</Frequency><Timestamp dt:dt=""r8"">80189032798</Timestamp><Current dt:dt=""r8"">0</Current><DateUtc dt:dt=""string"">2016-12-22T07:24:38Z</DateUtc></FrequencyChange></FrequencyChanges></Clock>\n",2016-12-22 15:24,84.838,1,-1414621576,12-22-2016,15:24:38,7:24:38,1,,,,,,,,1,1,1,,,,,,,,,,,,,,,,,lxProc,lx,,,17,lxhead,11,2,17,0,,-999999,42,86722,1,1385,88107,nv audio/hud.wav,lxpro1,lxlist
nv,13,1,"<?xml version=""1.0""?>\n<Clock xmlns:dt=""urn:schemas-microsoft-com:datatypes""><Description dt:dt=""string"">E-Prime Primary Realtime Clock</Description><StartTime><Timestamp dt:dt=""int"">0</Timestamp><DateUtc dt:dt=""string"">2016-12-22T07:24:38Z</DateUtc></StartTime><FrequencyChanges><FrequencyChange><Frequency dt:dt=""r8"">3579545</Frequency><Timestamp dt:dt=""r8"">80189032798</Timestamp><Current dt:dt=""r8"">0</Current><DateUtc dt:dt=""string"">2016-12-22T07:24:38Z</DateUtc></FrequencyChange></FrequencyChanges></Clock>\n",2016-12-22 15:24,84.838,1,-1414621576,12-22-2016,15:24:38,7:24:38,1,,,,,,,,1,1,1,,,,,,,,,,,,,,,,,lxProc,lx,,,18,lxhoed,10,2,18,0,,-999999,65,88678,1,1916,90594,nv audio/hood.wav,lxpro1,lxlist
nv,13,1,"<?xml version=""1.0""?>\n<Clock xmlns:dt=""urn:schemas-microsoft-com:datatypes""><Description dt:dt=""string"">E-Prime Primary Realtime Clock</Description><StartTime><Timestamp dt:dt=""int"">0</Timestamp><DateUtc dt:dt=""string"">2016-12-22T07:24:38Z</DateUtc></StartTime><FrequencyChanges><FrequencyChange><Frequency dt:dt=""r8"">3579545</Frequency><Timestamp dt:dt=""r8"">80189032798</Timestamp><Current dt:dt=""r8"">0</Current><DateUtc dt:dt=""string"">2016-12-22T07:24:38Z</DateUtc></FrequencyChange></FrequencyChanges></Clock>\n",2016-12-22 15:24,84.838,1,-1414621576,12-22-2016,15:24:38,7:24:38,1,,,,,,,,1,1,1,,,,,,,,,,,,,,,,,lxProc,lx,,,19,lxhead,4,2,19,0,,-999999,42,91142,1,1563,92705,nv audio/head.wav,lxpro1,lxlist
nv,13,1,"<?xml version=""1.0""?>\n<Clock xmlns:dt=""urn:schemas-microsoft-com:datatypes""><Description dt:dt=""string"">E-Prime Primary Realtime Clock</Description><StartTime><Timestamp dt:dt=""int"">0</Timestamp><DateUtc dt:dt=""string"">2016-12-22T07:24:38Z</DateUtc></StartTime><FrequencyChanges><FrequencyChange><Frequency dt:dt=""r8"">3579545</Frequency><Timestamp dt:dt=""r8"">80189032798</Timestamp><Current dt:dt=""r8"">0</Current><DateUtc dt:dt=""string"">2016-12-22T07:24:38Z</DateUtc></FrequencyChange></FrequencyChanges></Clock>\n",2016-12-22 15:24,84.838,1,-1414621576,12-22-2016,15:24:38,7:24:38,1,,,,,,,,1,1,1,,,,,,,,,,,,,,,,,lxProc,lx,,,20,lxhad,3,2,20,0,,-999999,42,93252,1,2664,95916,nv audio/hayed.wav,lxpro1,lxlist
nv,13,1,"<?xml version=""1.0""?>\n<Clock xmlns:dt=""urn:schemas-microsoft-com:datatypes""><Description dt:dt=""string"">E-Prime Primary Realtime Clock</Description><StartTime><Timestamp dt:dt=""int"">0</Timestamp><DateUtc dt:dt=""string"">2016-12-22T07:24:38Z</DateUtc></StartTime><FrequencyChanges><FrequencyChange><Frequency dt:dt=""r8"">3579545</Frequency><Timestamp dt:dt=""r8"">80189032798</Timestamp><Current dt:dt=""r8"">0</Current><DateUtc dt:dt=""string"">2016-12-22T07:24:38Z</DateUtc></FrequencyChange></FrequencyChanges></Clock>\n",2016-12-22 15:24,84.838,1,-1414621576,12-22-2016,15:24:38,7:24:38,1,,,,,,,,1,1,1,,,,,,,,,,,,,,,,,lxProc,lx,,,21,lxheed,7,2,21,0,,-999999,42,96470,1,1721,98191,nv audio/hid.wav,lxpro1,lxlist
nv,13,1,"<?xml version=""1.0""?>\n<Clock xmlns:dt=""urn:schemas-microsoft-com:datatypes""><Description dt:dt=""string"">E-Prime Primary Realtime Clock</Description><StartTime><Timestamp dt:dt=""int"">0</Timestamp><DateUtc dt:dt=""string"">2016-12-22T07:24:38Z</DateUtc></StartTime><FrequencyChanges><FrequencyChange><Frequency dt:dt=""r8"">3579545</Frequency><Timestamp dt:dt=""r8"">80189032798</Timestamp><Current dt:dt=""r8"">0</Current><DateUtc dt:dt=""string"">2016-12-22T07:24:38Z</DateUtc></FrequencyChange></FrequencyChanges></Clock>\n",2016-12-22 15:24,84.838,1,-1414621576,12-22-2016,15:24:38,7:24:38,1,,,,,,,,1,1,1,,,,,,,,,,,,,,,,,lxProc,lx,,,22,lxhead,1,2,22,0,,-999999,31,98733,1,1959,100692,nv audio/had.wav,lxpro1,lxlist
nv,13,1,"<?xml version=""1.0""?>\n<Clock xmlns:dt=""urn:schemas-microsoft-com:datatypes""><Description dt:dt=""string"">E-Prime Primary Realtime Clock</Description><StartTime><Timestamp dt:dt=""int"">0</Timestamp><DateUtc dt:dt=""string"">2016-12-22T07:24:38Z</DateUtc></StartTime><FrequencyChanges><FrequencyChange><Frequency dt:dt=""r8"">3579545</Frequency><Timestamp dt:dt=""r8"">80189032798</Timestamp><Current dt:dt=""r8"">0</Current><DateUtc dt:dt=""string"">2016-12-22T07:24:38Z</DateUtc></FrequencyChange></FrequencyChanges></Clock>\n",2016-12-22 15:24,84.838,1,-1414621576,12-22-2016,15:24:38,7:24:38,1,,,,,,,,1,1,1,,,,,,,,,,,,,,,,,lxProc,lx,,,23,lxhoed,9,2,23,0,,-999999,43,101244,1,3517,104761,nv audio/hoed.wav,lxpro1,lxlist
nv,13,1,"<?xml version=""1.0""?>\n<Clock xmlns:dt=""urn:schemas-microsoft-com:datatypes""><Description dt:dt=""string"">E-Prime Primary Realtime Clock</Description><StartTime><Timestamp dt:dt=""int"">0</Timestamp><DateUtc dt:dt=""string"">2016-12-22T07:24:38Z</DateUtc></StartTime><FrequencyChanges><FrequencyChange><Frequency dt:dt=""r8"">3579545</Frequency><Timestamp dt:dt=""r8"">80189032798</Timestamp><Current dt:dt=""r8"">0</Current><DateUtc dt:dt=""string"">2016-12-22T07:24:38Z</DateUtc></FrequencyChange></FrequencyChanges></Clock>\n",2016-12-22 15:24,84.838,1,-1414621576,12-22-2016,15:24:38,7:24:38,1,,,,,,,,1,1,1,,,,,,,,,,,,,,,,,lxProc,lx,,,24,lxhood,12,2,24,0,,-999999,66,105334,1,1401,106735,nv audio/whod.wav,lxpro1,lxlist
nv,13,1,"<?xml version=""1.0""?>\n<Clock xmlns:dt=""urn:schemas-microsoft-com:datatypes""><Description dt:dt=""string"">E-Prime Primary Realtime Clock</Description><StartTime><Timestamp dt:dt=""int"">0</Timestamp><DateUtc dt:dt=""string"">2016-12-22T07:24:38Z</DateUtc></StartTime><FrequencyChanges><FrequencyChange><Frequency dt:dt=""r8"">3579545</Frequency><Timestamp dt:dt=""r8"">80189032798</Timestamp><Current dt:dt=""r8"">0</Current><DateUtc dt:dt=""string"">2016-12-22T07:24:38Z</DateUtc></FrequencyChange></FrequencyChanges></Clock>\n",2016-12-22 15:24,84.838,1,-1414621576,12-22-2016,15:24:38,7:24:38,2,hood,12,1,1,,,,,,,0,,-999999,41,109848,1,1209,111057,,,,,,,,,aexppro111,block1,nv audio/whod.wav,,,,,,,,,,,,,,,,,
nv,13,1,"<?xml version=""1.0""?>\n<Clock xmlns:dt=""urn:schemas-microsoft-com:datatypes""><Description dt:dt=""string"">E-Prime Primary Realtime Clock</Description><StartTime><Timestamp dt:dt=""int"">0</Timestamp><DateUtc dt:dt=""string"">2016-12-22T07:24:38Z</DateUtc></StartTime><FrequencyChanges><FrequencyChange><Frequency dt:dt=""r8"">3579545</Frequency><Timestamp dt:dt=""r8"">80189032798</Timestamp><Current dt:dt=""r8"">0</Current><DateUtc dt:dt=""string"">2016-12-22T07:24:38Z</DateUtc></FrequencyChange></FrequencyChanges></Clock>\n",2016-12-22 15:24,84.838,1,-1414621576,12-22-2016,15:24:38,7:24:38,3,head,3,1,2,,,,,,,0,,-999999,31,111593,1,2954,114547,,,,,,,,,aexppro111,block1,nv audio/hayed.wav,,,,,,,,,,,,,,,,,
nv,13,1,"<?xml version=""1.0""?>\n<Clock xmlns:dt=""urn:schemas-microsoft-com:datatypes""><Description dt:dt=""string"">E-Prime Primary Realtime Clock</Description><StartTime><Timestamp dt:dt=""int"">0</Timestamp><DateUtc dt:dt=""string"">2016-12-22T07:24:38Z</DateUtc></StartTime><FrequencyChanges><FrequencyChange><Frequency dt:dt=""r8"">3579545</Frequency><Timestamp dt:dt=""r8"">80189032798</Timestamp><Current dt:dt=""r8"">0</Current><DateUtc dt:dt=""string"">2016-12-22T07:24:38Z</DateUtc></FrequencyChange></FrequencyChanges></Clock>\n",2016-12-22 15:24,84.838,1,-1414621576,12-22-2016,15:24:38,7:24:38,4,head,1,1,3,,,,,,,0,,-999999,66,115117,1,2271,117388,,,,,,,,,aexppro111,block1,nv audio/had.wav,,,,,,,,,,,,,,,,,
nv,13,1,"<?xml version=""1.0""?>\n<Clock xmlns:dt=""urn:schemas-microsoft-com:datatypes""><Description dt:dt=""string"">E-Prime Primary Realtime Clock</Description><StartTime><Timestamp dt:dt=""int"">0</Timestamp><DateUtc dt:dt=""string"">2016-12-22T07:24:38Z</DateUtc></StartTime><FrequencyChanges><FrequencyChange><Frequency dt:dt=""r8"">3579545</Frequency><Timestamp dt:dt=""r8"">80189032798</Timestamp><Current dt:dt=""r8"">0</Current><DateUtc dt:dt=""string"">2016-12-22T07:24:38Z</DateUtc></FrequencyChange></FrequencyChanges></Clock>\n",2016-12-22 15:24,84.838,1,-1414621576,12-22-2016,15:24:38,7:24:38,5,heed,6,1,4,,,,,,,0,,-999999,54,117946,1,1148,119094,,,,,,,,,aexppro111,block1,nv audio/heed.wav,,,,,,,,,,,,,,,,,
nv,13,1,"<?xml version=""1.0""?>\n<Clock xmlns:dt=""urn:schemas-microsoft-com:datatypes""><Description dt:dt=""string"">E-Prime Primary Realtime Clock</Description><StartTime><Timestamp dt:dt=""int"">0</Timestamp><DateUtc dt:dt=""string"">2016-12-22T07:24:38Z</DateUtc></StartTime><FrequencyChanges><FrequencyChange><Frequency dt:dt=""r8"">3579545</Frequency><Timestamp dt:dt=""r8"">80189032798</Timestamp><Current dt:dt=""r8"">0</Current><DateUtc dt:dt=""string"">2016-12-22T07:24:38Z</DateUtc></FrequencyChange></FrequencyChanges></Clock>\n",2016-12-22 15:24,84.838,1,-1414621576,12-22-2016,15:24:38,7:24:38,6,hud,2,1,5,,,,,,,0,,-999999,42,119643,1,1207,120850,,,,,,,,,aexppro111,block1,nv audio/hawed.wav,,,,,,,,,,,,,,,,,
nv,13,1,"<?xml version=""1.0""?>\n<Clock xmlns:dt=""urn:schemas-microsoft-com:datatypes""><Description dt:dt=""string"">E-Prime Primary Realtime Clock</Description><StartTime><Timestamp dt:dt=""int"">0</Timestamp><DateUtc dt:dt=""string"">2016-12-22T07:24:38Z</DateUtc></StartTime><FrequencyChanges><FrequencyChange><Frequency dt:dt=""r8"">3579545</Frequency><Timestamp dt:dt=""r8"">80189032798</Timestamp><Current dt:dt=""r8"">0</Current><DateUtc dt:dt=""string"">2016-12-22T07:24:38Z</DateUtc></FrequencyChange></FrequencyChanges></Clock>\n",2016-12-22 15:24,84.838,1,-1414621576,12-22-2016,15:24:38,7:24:38,7,hoed,5,1,6,,,,,,,0,,-999999,43,121400,1,1824,123224,,,,,,,,,aexppro111,block1,nv audio/heard.wav,,,,,,,,,,,,,,,,,
nv,13,1,"<?xml version=""1.0""?>\n<Clock xmlns:dt=""urn:schemas-microsoft-com:datatypes""><Description dt:dt=""string"">E-Prime Primary Realtime Clock</Description><StartTime><Timestamp dt:dt=""int"">0</Timestamp><DateUtc dt:dt=""string"">2016-12-22T07:24:38Z</DateUtc></StartTime><FrequencyChanges><FrequencyChange><Frequency dt:dt=""r8"">3579545</Frequency><Timestamp dt:dt=""r8"">80189032798</Timestamp><Current dt:dt=""r8"">0</Current><DateUtc dt:dt=""string"">2016-12-22T07:24:38Z</DateUtc></FrequencyChange></FrequencyChanges></Clock>\n",2016-12-22 15:24,84.838,1,-1414621576,12-22-2016,15:24:38,7:24:38,8,had,7,1,7,,,,,,,0,,-999999,42,123769,1,1736,125505,,,,,,,,,aexppro111,block1,nv audio/hid.wav,,,,,,,,,,,,,,,,,
nv,13,1,"<?xml version=""1.0""?>\n<Clock xmlns:dt=""urn:schemas-microsoft-com:datatypes""><Description dt:dt=""string"">E-Prime Primary Realtime Clock</Description><StartTime><Timestamp dt:dt=""int"">0</Timestamp><DateUtc dt:dt=""string"">2016-12-22T07:24:38Z</DateUtc></StartTime><FrequencyChanges><FrequencyChange><Frequency dt:dt=""r8"">3579545</Frequency><Timestamp dt:dt=""r8"">80189032798</Timestamp><Current dt:dt=""r8"">0</Current><DateUtc dt:dt=""string"">2016-12-22T07:24:38Z</DateUtc></FrequencyChange></FrequencyChanges></Clock>\n",2016-12-22 15:24,84.838,1,-1414621576,12-22-2016,15:24:38,7:24:38,9,hud,8,1,8,,,,,,,0,,-999999,43,126056,1,1172,127228,,,,,,,,,aexppro111,block1,nv audio/hod.wav
nv,13,1,"<?xml version=""1.0""?>\n<Clock xmlns:dt=""urn:schemas-microsoft-com:datatypes""><Description dt:dt=""string"">E-Prime Primary Realtime Clock</Description><StartTime><Timestamp dt:dt=""int"">0</Timestamp><DateUtc dt:dt=""string"">2016-12-22T07:24:38Z</DateUtc></StartTime><FrequencyChanges><FrequencyChange><Frequency dt:dt=""r8"">3579545</Frequency><Timestamp dt:dt=""r8"">80189032798</Timestamp><Current dt:dt=""r8"">0</Current><DateUtc dt:dt=""string"">2016-12-22T07:24:38Z</DateUtc></FrequencyChange></FrequencyChanges></Clock>\n",2016-12-22 15:24,84.838,1,-1414621576,12-22-2016,15:24:38,7:24:38,10,hoed,9,1,9,,,,,,,0,,-999999,31,127765,1,1935,129700,,,,,,,,,aexppro111,block1,nv audio/hoed.wav
nv,13,1,"<?xml version=""1.0""?>\n<Clock xmlns:dt=""urn:schemas-microsoft-com:datatypes""><Description dt:dt=""string"">E-Prime Primary Realtime Clock</Description><StartTime><Timestamp dt:dt=""int"">0</Timestamp><DateUtc dt:dt=""string"">2016-12-22T07:24:38Z</DateUtc></StartTime><FrequencyChanges><FrequencyChange><Frequency dt:dt=""r8"">3579545</Frequency><Timestamp dt:dt=""r8"">80189032798</Timestamp><Current dt:dt=""r8"">0</Current><DateUtc dt:dt=""string"">2016-12-22T07:24:38Z</DateUtc></FrequencyChange></FrequencyChanges></Clock>\n",2016-12-22 15:24,84.838,1,-1414621576,12-22-2016,15:24:38,7:24:38,11,head,10,1,10,,,,,,,0,,-999999,42,130252,1,2249,132501,,,,,,,,,aexppro111,block1,nv audio/hood.wav
nv,13,1,"<?xml version=""1.0""?>\n<Clock xmlns:dt=""urn:schemas-microsoft-com:datatypes""><Description dt:dt=""string"">E-Prime Primary Realtime Clock</Description><StartTime><Timestamp dt:dt=""int"">0</Timestamp><DateUtc dt:dt=""string"">2016-12-22T07:24:38Z</DateUtc></StartTime><FrequencyChanges><FrequencyChange><Frequency dt:dt=""r8"">3579545</Frequency><Timestamp dt:dt=""r8"">80189032798</Timestamp><Current dt:dt=""r8"">0</Current><DateUtc dt:dt=""string"">2016-12-22T07:24:38Z</DateUtc></FrequencyChange></FrequencyChanges></Clock>\n",2016-12-22 15:24,84.838,1,-1414621576,12-22-2016,15:24:38,7:24:38,12,head,11,1,11,,,,,,,0,,-999999,66,133069,1,2443,135512,,,,,,,,,aexppro111,block1,nv audio/hud.wav
nv,13,1,"<?xml version=""1.0""?>\n<Clock xmlns:dt=""urn:schemas-microsoft-com:datatypes""><Description dt:dt=""string"">E-Prime Primary Realtime Clock</Description><StartTime><Timestamp dt:dt=""int"">0</Timestamp><DateUtc dt:dt=""string"">2016-12-22T07:24:38Z</DateUtc></StartTime><FrequencyChanges><FrequencyChange><Frequency dt:dt=""r8"">3579545</Frequency><Timestamp dt:dt=""r8"">80189032798</Timestamp><Current dt:dt=""r8"">0</Current><DateUtc dt:dt=""string"">2016-12-22T07:24:38Z</DateUtc></FrequencyChange></FrequencyChanges></Clock>\n",2016-12-22 15:24,84.838,1,-1414621576,12-22-2016,15:24:38,7:24:38,13,head,4,1,12,,,,,,,0,,-999999,42,136063,1,1916,137979,,,,,,,,,aexppro111,block1,nv audio/head.wav
nv,13,1,"<?xml version=""1.0""?>\n<Clock xmlns:dt=""urn:schemas-microsoft-com:datatypes""><Description dt:dt=""string"">E-Prime Primary Realtime Clock</Description><StartTime><Timestamp dt:dt=""int"">0</Timestamp><DateUtc dt:dt=""string"">2016-12-22T07:24:38Z</DateUtc></StartTime><FrequencyChanges><FrequencyChange><Frequency dt:dt=""r8"">3579545</Frequency><Timestamp dt:dt=""r8"">80189032798</Timestamp><Current dt:dt=""r8"">0</Current><DateUtc dt:dt=""string"">2016-12-22T07:24:38Z</DateUtc></FrequencyChange></FrequencyChanges></Clock>\n",2016-12-22 15:24,84.838,1,-1414621576,12-22-2016,15:24:38,7:24:38,14,had,3,2,13,,,,,,,0,,-999999,31,138515,1,1327,139842,,,,,,,,,aexppro111,block1,nv audio/hayed.wav
nv,13,1,"<?xml version=""1.0""?>\n<Clock xmlns:dt=""urn:schemas-microsoft-com:datatypes""><Description dt:dt=""string"">E-Prime Primary Realtime Clock</Description><StartTime><Timestamp dt:dt=""int"">0</Timestamp><DateUtc dt:dt=""string"">2016-12-22T07:24:38Z</DateUtc></StartTime><FrequencyChanges><FrequencyChange><Frequency dt:dt=""r8"">3579545</Frequency><Timestamp dt:dt=""r8"">80189032798</Timestamp><Current dt:dt=""r8"">0</Current><DateUtc dt:dt=""string"">2016-12-22T07:24:38Z</DateUtc></FrequencyChange></FrequencyChanges></Clock>\n",2016-12-22 15:24,84.838,1,-1414621576,12-22-2016,15:24:38,7:24:38,15,hoed,10,2,14,,,,,,,0,,-999999,66,140412,1,1695,142107,,,,,,,,,aexppro111,block1,nv audio/hood.wav
nv,13,1,"<?xml version=""1.0""?>\n<Clock xmlns:dt=""urn:schemas-microsoft-com:datatypes""><Description dt:dt=""string"">E-Prime Primary Realtime Clock</Description><StartTime><Timestamp dt:dt=""int"">0</Timestamp><DateUtc dt:dt=""string"">2016-12-22T07:24:38Z</DateUtc></StartTime><FrequencyChanges><FrequencyChange><Frequency dt:dt=""r8"">3579545</Frequency><Timestamp dt:dt=""r8"">80189032798</Timestamp><Current dt:dt=""r8"">0</Current><DateUtc dt:dt=""string"">2016-12-22T07:24:38Z</DateUtc></FrequencyChange></FrequencyChanges></Clock>\n",2016-12-22 15:24,84.838,1,-1414621576,12-22-2016,15:24:38,7:24:38,16,hoed,5,2,15,,,,,,,0,,-999999,54,142664,1,2179,144843,,,,,,,,,aexppro111,block1,nv audio/heard.wav
nv,13,1,"<?xml version=""1.0""?>\n<Clock xmlns:dt=""urn:schemas-microsoft-com:datatypes""><Description dt:dt=""string"">E-Prime Primary Realtime Clock</Description><StartTime><Timestamp dt:dt=""int"">0</Timestamp><DateUtc dt:dt=""string"">2016-12-22T07:24:38Z</DateUtc></StartTime><FrequencyChanges><FrequencyChange><Frequency dt:dt=""r8"">3579545</Frequency><Timestamp dt:dt=""r8"">80189032798</Timestamp><Current dt:dt=""r8"">0</Current><DateUtc dt:dt=""string"">2016-12-22T07:24:38Z</DateUtc></FrequencyChange></FrequencyChanges></Clock>\n",2016-12-22 15:24,84.838,1,-1414621576,12-22-2016,15:24:38,7:24:38,17,had,7,2,16,,,,,,,0,,-999999,53,145398,1,2282,147680,,,,,,,,,aexppro111,block1,nv audio/hid.wav
nv,13,1,"<?xml version=""1.0""?>\n<Clock xmlns:dt=""urn:schemas-microsoft-com:datatypes""><Description dt:dt=""string"">E-Prime Primary Realtime Clock</Description><StartTime><Timestamp dt:dt=""int"">0</Timestamp><DateUtc dt:dt=""string"">2016-12-22T07:24:38Z</DateUtc></StartTime><FrequencyChanges><FrequencyChange><Frequency dt:dt=""r8"">3579545</Frequency><Timestamp dt:dt=""r8"">80189032798</Timestamp><Current dt:dt=""r8"">0</Current><DateUtc dt:dt=""string"">2016-12-22T07:24:38Z</DateUtc></FrequencyChange></FrequencyChanges></Clock>\n",2016-12-22 15:24,84.838,1,-1414621576,12-22-2016,15:24:38,7:24:38,18,head,11,2,17,,,,,,,0,,-999999,42,148227,1,934,149161,,,,,,,,,aexppro111,block1,nv audio/hud.wav
nv,13,1,"<?xml version=""1.0""?>\n<Clock xmlns:dt=""urn:schemas-microsoft-com:datatypes""><Description dt:dt=""string"">E-Prime Primary Realtime Clock</Description><StartTime><Timestamp dt:dt=""int"">0</Timestamp><DateUtc dt:dt=""string"">2016-12-22T07:24:38Z</DateUtc></StartTime><FrequencyChanges><FrequencyChange><Frequency dt:dt=""r8"">3579545</Frequency><Timestamp dt:dt=""r8"">80189032798</Timestamp><Current dt:dt=""r8"">0</Current><DateUtc dt:dt=""string"">2016-12-22T07:24:38Z</DateUtc></FrequencyChange></FrequencyChanges></Clock>\n",2016-12-22 15:24,84.838,1,-1414621576,12-22-2016,15:24:38,7:24:38,19,hud,8,2,18,,,,,,,0,,-999999,42,149712,1,1332,151044,,,,,,,,,aexppro111,block1,nv audio/hod.wav
nv,13,1,"<?xml version=""1.0""?>\n<Clock xmlns:dt=""urn:schemas-microsoft-com:datatypes""><Description dt:dt=""string"">E-Prime Primary Realtime Clock</Description><StartTime><Timestamp dt:dt=""int"">0</Timestamp><DateUtc dt:dt=""string"">2016-12-22T07:24:38Z</DateUtc></StartTime><FrequencyChanges><FrequencyChange><Frequency dt:dt=""r8"">3579545</Frequency><Timestamp dt:dt=""r8"">80189032798</Timestamp><Current dt:dt=""r8"">0</Current><DateUtc dt:dt=""string"">2016-12-22T07:24:38Z</DateUtc></FrequencyChange></FrequencyChanges></Clock>\n",2016-12-22 15:24,84.838,1,-1414621576,12-22-2016,15:24:38,7:24:38,20,hud,1,2,19,,,,,,,0,,-999999,42,151598,1,1364,152962,,,,,,,,,aexppro111,block1,nv audio/had.wav
nv,13,1,"<?xml version=""1.0""?>\n<Clock xmlns:dt=""urn:schemas-microsoft-com:datatypes""><Description dt:dt=""string"">E-Prime Primary Realtime Clock</Description><StartTime><Timestamp dt:dt=""int"">0</Timestamp><DateUtc dt:dt=""string"">2016-12-22T07:24:38Z</DateUtc></StartTime><FrequencyChanges><FrequencyChange><Frequency dt:dt=""r8"">3579545</Frequency><Timestamp dt:dt=""r8"">80189032798</Timestamp><Current dt:dt=""r8"">0</Current><DateUtc dt:dt=""string"">2016-12-22T07:24:38Z</DateUtc></FrequencyChange></FrequencyChanges></Clock>\n",2016-12-22 15:24,84.838,1,-1414621576,12-22-2016,15:24:38,7:24:38,21,hoed,9,2,20,,,,,,,0,,-999999,42,153508,1,1351,154859,,,,,,,,,aexppro111,block1,nv audio/hoed.wav
nv,13,1,"<?xml version=""1.0""?>\n<Clock xmlns:dt=""urn:schemas-microsoft-com:datatypes""><Description dt:dt=""string"">E-Prime Primary Realtime Clock</Description><StartTime><Timestamp dt:dt=""int"">0</Timestamp><DateUtc dt:dt=""string"">2016-12-22T07:24:38Z</DateUtc></StartTime><FrequencyChanges><FrequencyChange><Frequency dt:dt=""r8"">3579545</Frequency><Timestamp dt:dt=""r8"">80189032798</Timestamp><Current dt:dt=""r8"">0</Current><DateUtc dt:dt=""string"">2016-12-22T07:24:38Z</DateUtc></FrequencyChange></FrequencyChanges></Clock>\n",2016-12-22 15:24,84.838,1,-1414621576,12-22-2016,15:24:38,7:24:38,22,hud,2,2,21,,,,,,,0,,-999999,66,155429,1,1107,156536,,,,,,,,,aexppro111,block1,nv audio/hawed.wav
nv,13,1,"<?xml version=""1.0""?>\n<Clock xmlns:dt=""urn:schemas-microsoft-com:datatypes""><Description dt:dt=""string"">E-Prime Primary Realtime Clock</Description><StartTime><Timestamp dt:dt=""int"">0</Timestamp><DateUtc dt:dt=""string"">2016-12-22T07:24:38Z</DateUtc></StartTime><FrequencyChanges><FrequencyChange><Frequency dt:dt=""r8"">3579545</Frequency><Timestamp dt:dt=""r8"">80189032798</Timestamp><Current dt:dt=""r8"">0</Current><DateUtc dt:dt=""string"">2016-12-22T07:24:38Z</DateUtc></FrequencyChange></FrequencyChanges></Clock>\n",2016-12-22 15:24,84.838,1,-1414621576,12-22-2016,15:24:38,7:24:38,23,heed,6,2,22,,,,,,,0,,-999999,42,157079,1,1087,158166,,,,,,,,,aexppro111,block1,nv audio/heed.wav
nv,13,1,"<?xml version=""1.0""?>\n<Clock xmlns:dt=""urn:schemas-microsoft-com:datatypes""><Description dt:dt=""string"">E-Prime Primary Realtime Clock</Description><StartTime><Timestamp dt:dt=""int"">0</Timestamp><DateUtc dt:dt=""string"">2016-12-22T07:24:38Z</DateUtc></StartTime><FrequencyChanges><FrequencyChange><Frequency dt:dt=""r8"">3579545</Frequency><Timestamp dt:dt=""r8"">80189032798</Timestamp><Current dt:dt=""r8"">0</Current><DateUtc dt:dt=""string"">2016-12-22T07:24:38Z</DateUtc></FrequencyChange></FrequencyChanges></Clock>\n",2016-12-22 15:24,84.838,1,-1414621576,12-22-2016,15:24:38,7:24:38,24,hood,12,2,23,,,,,,,0,,-999999,66,158741,1,1593,160334,,,,,,,,,aexppro111,block1,nv audio/whod.wav
nv,13,1,"<?xml version=""1.0""?>\n<Clock xmlns:dt=""urn:schemas-microsoft-com:datatypes""><Description dt:dt=""string"">E-Prime Primary Realtime Clock</Description><StartTime><Timestamp dt:dt=""int"">0</Timestamp><DateUtc dt:dt=""string"">2016-12-22T07:24:38Z</DateUtc></StartTime><FrequencyChanges><FrequencyChange><Frequency dt:dt=""r8"">3579545</Frequency><Timestamp dt:dt=""r8"">80189032798</Timestamp><Current dt:dt=""r8"">0</Current><DateUtc dt:dt=""string"">2016-12-22T07:24:38Z</DateUtc></FrequencyChange></FrequencyChanges></Clock>\n",2016-12-22 15:24,84.838,1,-1414621576,12-22-2016,15:24:38,7:24:38,25,head,4,2,24,,,,,,,0,,-999999,66,160910,1,1474,162384,,,,,,,,,aexppro111,block1,nv audio/head.wav
nv,13,1,"<?xml version=""1.0""?>\n<Clock xmlns:dt=""urn:schemas-microsoft-com:datatypes""><Description dt:dt=""string"">E-Prime Primary Realtime Clock</Description><StartTime><Timestamp dt:dt=""int"">0</Timestamp><DateUtc dt:dt=""string"">2016-12-22T07:24:38Z</DateUtc></StartTime><FrequencyChanges><FrequencyChange><Frequency dt:dt=""r8"">3579545</Frequency><Timestamp dt:dt=""r8"">80189032798</Timestamp><Current dt:dt=""r8"">0</Current><DateUtc dt:dt=""string"">2016-12-22T07:24:38Z</DateUtc></FrequencyChange></FrequencyChanges></Clock>\n",2016-12-22 15:24,84.838,1,-1414621576,12-22-2016,15:24:38,7:24:38,26,had,7,3,25,,,,,,,0,,-999999,42,162937,1,2285,165222,,,,,,,,,aexppro111,block1,nv audio/hid.wav
nv,13,1,"<?xml version=""1.0""?>\n<Clock xmlns:dt=""urn:schemas-microsoft-com:datatypes""><Description dt:dt=""string"">E-Prime Primary Realtime Clock</Description><StartTime><Timestamp dt:dt=""int"">0</Timestamp><DateUtc dt:dt=""string"">2016-12-22T07:24:38Z</DateUtc></StartTime><FrequencyChanges><FrequencyChange><Frequency dt:dt=""r8"">3579545</Frequency><Timestamp dt:dt=""r8"">80189032798</Timestamp><Current dt:dt=""r8"">0</Current><DateUtc dt:dt=""string"">2016-12-22T07:24:38Z</DateUtc></FrequencyChange></FrequencyChanges></Clock>\n",2016-12-22 15:24,84.838,1,-1414621576,12-22-2016,15:24:38,7:24:38,27,head,10,3,26,,,,,,,0,,-999999,42,165766,1,1281,167047,,,,,,,,,aexppro111,block1,nv audio/hood.wav
nv,13,1,"<?xml version=""1.0""?>\n<Clock xmlns:dt=""urn:schemas-microsoft-com:datatypes""><Description dt:dt=""string"">E-Prime Primary Realtime Clock</Description><StartTime><Timestamp dt:dt=""int"">0</Timestamp><DateUtc dt:dt=""string"">2016-12-22T07:24:38Z</DateUtc></StartTime><FrequencyChanges><FrequencyChange><Frequency dt:dt=""r8"">3579545</Frequency><Timestamp dt:dt=""r8"">80189032798</Timestamp><Current dt:dt=""r8"">0</Current><DateUtc dt:dt=""string"">2016-12-22T07:24:38Z</DateUtc></FrequencyChange></FrequencyChanges></Clock>\n",2016-12-22 15:24,84.838,1,-1414621576,12-22-2016,15:24:38,7:24:38,28,head,11,3,27,,,,,,,0,,-999999,66,167617,1,1090,168707,,,,,,,,,aexppro111,block1,nv audio/hud.wav
nv,13,1,"<?xml version=""1.0""?>\n<Clock xmlns:dt=""urn:schemas-microsoft-com:datatypes""><Description dt:dt=""string"">E-Prime Primary Realtime Clock</Description><StartTime><Timestamp dt:dt=""int"">0</Timestamp><DateUtc dt:dt=""string"">2016-12-22T07:24:38Z</DateUtc></StartTime><FrequencyChanges><FrequencyChange><Frequency dt:dt=""r8"">3579545</Frequency><Timestamp dt:dt=""r8"">80189032798</Timestamp><Current dt:dt=""r8"">0</Current><DateUtc dt:dt=""string"">2016-12-22T07:24:38Z</DateUtc></FrequencyChange></FrequencyChanges></Clock>\n",2016-12-22 15:24,84.838,1,-1414621576,12-22-2016,15:24:38,7:24:38,29,head,4,3,28,,,,,,,0,,-999999,42,169255,1,931,170186,,,,,,,,,aexppro111,block1,nv audio/head.wav
nv,13,1,"<?xml version=""1.0""?>\n<Clock xmlns:dt=""urn:schemas-microsoft-com:datatypes""><Description dt:dt=""string"">E-Prime Primary Realtime Clock</Description><StartTime><Timestamp dt:dt=""int"">0</Timestamp><DateUtc dt:dt=""string"">2016-12-22T07:24:38Z</DateUtc></StartTime><FrequencyChanges><FrequencyChange><Frequency dt:dt=""r8"">3579545</Frequency><Timestamp dt:dt=""r8"">80189032798</Timestamp><Current dt:dt=""r8"">0</Current><DateUtc dt:dt=""string"">2016-12-22T07:24:38Z</DateUtc></FrequencyChange></FrequencyChanges></Clock>\n",2016-12-22 15:24,84.838,1,-1414621576,12-22-2016,15:24:38,7:24:38,30,hoed,9,3,29,,,,,,,0,,-999999,43,170741,1,2454,173195,,,,,,,,,aexppro111,block1,nv audio/hoed.wav
nv,13,1,"<?xml version=""1.0""?>\n<Clock xmlns:dt=""urn:schemas-microsoft-com:datatypes""><Description dt:dt=""string"">E-Prime Primary Realtime Clock</Description><StartTime><Timestamp dt:dt=""int"">0</Timestamp><DateUtc dt:dt=""string"">2016-12-22T07:24:38Z</DateUtc></StartTime><FrequencyChanges><FrequencyChange><Frequency dt:dt=""r8"">3579545</Frequency><Timestamp dt:dt=""r8"">80189032798</Timestamp><Current dt:dt=""r8"">0</Current><DateUtc dt:dt=""string"">2016-12-22T07:24:38Z</DateUtc></FrequencyChange></FrequencyChanges></Clock>\n",2016-12-22 15:24,84.838,1,-1414621576,12-22-2016,15:24:38,7:24:38,31,heard,2,3,30,,,,,,,0,,-999999,66,173770,1,1757,175527,,,,,,,,,aexppro111,block1,nv audio/hawed.wav
nv,13,1,"<?xml version=""1.0""?>\n<Clock xmlns:dt=""urn:schemas-microsoft-com:datatypes""><Description dt:dt=""string"">E-Prime Primary Realtime Clock</Description><StartTime><Timestamp dt:dt=""int"">0</Timestamp><DateUtc dt:dt=""string"">2016-12-22T07:24:38Z</DateUtc></StartTime><FrequencyChanges><FrequencyChange><Frequency dt:dt=""r8"">3579545</Frequency><Timestamp dt:dt=""r8"">80189032798</Timestamp><Current dt:dt=""r8"">0</Current><DateUtc dt:dt=""string"">2016-12-22T07:24:38Z</DateUtc></FrequencyChange></FrequencyChanges></Clock>\n",2016-12-22 15:24,84.838,1,-1414621576,12-22-2016,15:24:38,7:24:38,32,,5,3,31,,,,,,,0,,-999999,42,176080,1,3500,179580,,,,,,,,,aexppro111,block1,nv audio/heard.wav
nv,13,1,"<?xml version=""1.0""?>\n<Clock xmlns:dt=""urn:schemas-microsoft-com:datatypes""><Description dt:dt=""string"">E-Prime Primary Realtime Clock</Description><StartTime><Timestamp dt:dt=""int"">0</Timestamp><DateUtc dt:dt=""string"">2016-12-22T07:24:38Z</DateUtc></StartTime><FrequencyChanges><FrequencyChange><Frequency dt:dt=""r8"">3579545</Frequency><Timestamp dt:dt=""r8"">80189032798</Timestamp><Current dt:dt=""r8"">0</Current><DateUtc dt:dt=""string"">2016-12-22T07:24:38Z</DateUtc></FrequencyChange></FrequencyChanges></Clock>\n",2016-12-22 15:24,84.838,1,-1414621576,12-22-2016,15:24:38,7:24:38,33,heed,6,3,32,,,,,,,0,,-999999,65,181160,1,2626,183786,,,,,,,,,aexppro111,block1,nv audio/heed.wav
nv,13,1,"<?xml version=""1.0""?>\n<Clock xmlns:dt=""urn:schemas-microsoft-com:datatypes""><Description dt:dt=""string"">E-Prime Primary Realtime Clock</Description><StartTime><Timestamp dt:dt=""int"">0</Timestamp><DateUtc dt:dt=""string"">2016-12-22T07:24:38Z</DateUtc></StartTime><FrequencyChanges><FrequencyChange><Frequency dt:dt=""r8"">3579545</Frequency><Timestamp dt:dt=""r8"">80189032798</Timestamp><Current dt:dt=""r8"">0</Current><DateUtc dt:dt=""string"">2016-12-22T07:24:38Z</DateUtc></FrequencyChange></FrequencyChanges></Clock>\n",2016-12-22 15:24,84.838,1,-1414621576,12-22-2016,15:24:38,7:24:38,34,hood,12,3,33,,,,,,,0,,-999999,78,184367,1,1115,185482,,,,,,,,,aexppro111,block1,nv audio/whod.wav
nv,13,1,"<?xml version=""1.0""?>\n<Clock xmlns:dt=""urn:schemas-microsoft-com:datatypes""><Description dt:dt=""string"">E-Prime Primary Realtime Clock</Description><StartTime><Timestamp dt:dt=""int"">0</Timestamp><DateUtc dt:dt=""string"">2016-12-22T07:24:38Z</DateUtc></StartTime><FrequencyChanges><FrequencyChange><Frequency dt:dt=""r8"">3579545</Frequency><Timestamp dt:dt=""r8"">80189032798</Timestamp><Current dt:dt=""r8"">0</Current><DateUtc dt:dt=""string"">2016-12-22T07:24:38Z</DateUtc></FrequencyChange></FrequencyChanges></Clock>\n",2016-12-22 15:24,84.838,1,-1414621576,12-22-2016,15:24:38,7:24:38,35,hud,1,3,34,,,,,,,0,,-999999,66,186052,1,1842,187894,,,,,,,,,aexppro111,block1,nv audio/had.wav
nv,13,1,"<?xml version=""1.0""?>\n<Clock xmlns:dt=""urn:schemas-microsoft-com:datatypes""><Description dt:dt=""string"">E-Prime Primary Realtime Clock</Description><StartTime><Timestamp dt:dt=""int"">0</Timestamp><DateUtc dt:dt=""string"">2016-12-22T07:24:38Z</DateUtc></StartTime><FrequencyChanges><FrequencyChange><Frequency dt:dt=""r8"">3579545</Frequency><Timestamp dt:dt=""r8"">80189032798</Timestamp><Current dt:dt=""r8"">0</Current><DateUtc dt:dt=""string"">2016-12-22T07:24:38Z</DateUtc></FrequencyChange></FrequencyChanges></Clock>\n",2016-12-22 15:24,84.838,1,-1414621576,12-22-2016,15:24:38,7:24:38,36,hud,8,3,35,,,,,,,0,,-999999,42,188445,1,1156,189601,,,,,,,,,aexppro111,block1,nv audio/hod.wav
nv,13,1,"<?xml version=""1.0""?>\n<Clock xmlns:dt=""urn:schemas-microsoft-com:datatypes""><Description dt:dt=""string"">E-Prime Primary Realtime Clock</Description><StartTime><Timestamp dt:dt=""int"">0</Timestamp><DateUtc dt:dt=""string"">2016-12-22T07:24:38Z</DateUtc></StartTime><FrequencyChanges><FrequencyChange><Frequency dt:dt=""r8"">3579545</Frequency><Timestamp dt:dt=""r8"">80189032798</Timestamp><Current dt:dt=""r8"">0</Current><DateUtc dt:dt=""string"">2016-12-22T07:24:38Z</DateUtc></FrequencyChange></FrequencyChanges></Clock>\n",2016-12-22 15:24,84.838,1,-1414621576,12-22-2016,15:24:38,7:24:38,37,hoed,3,3,36,,,,,,,0,,-999999,66,190178,1,2052,192230,,,,,,,,,aexppro111,block1,nv audio/hayed.wav
nv,13,1,"<?xml version=""1.0""?>\n<Clock xmlns:dt=""urn:schemas-microsoft-com:datatypes""><Description dt:dt=""string"">E-Prime Primary Realtime Clock</Description><StartTime><Timestamp dt:dt=""int"">0</Timestamp><DateUtc dt:dt=""string"">2016-12-22T07:24:38Z</DateUtc></StartTime><FrequencyChanges><FrequencyChange><Frequency dt:dt=""r8"">3579545</Frequency><Timestamp dt:dt=""r8"">80189032798</Timestamp><Current dt:dt=""r8"">0</Current><DateUtc dt:dt=""string"">2016-12-22T07:24:38Z</DateUtc></FrequencyChange></FrequencyChanges></Clock>\n",2016-12-22 15:24,84.838,1,-1414621576,12-22-2016,15:24:38,7:24:38,38,hood,12,4,37,,,,,,,0,,-999999,43,192783,1,1252,194035,,,,,,,,,aexppro111,block1,nv audio/whod.wav
nv,13,1,"<?xml version=""1.0""?>\n<Clock xmlns:dt=""urn:schemas-microsoft-com:datatypes""><Description dt:dt=""string"">E-Prime Primary Realtime Clock</Description><StartTime><Timestamp dt:dt=""int"">0</Timestamp><DateUtc dt:dt=""string"">2016-12-22T07:24:38Z</DateUtc></StartTime><FrequencyChanges><FrequencyChange><Frequency dt:dt=""r8"">3579545</Frequency><Timestamp dt:dt=""r8"">80189032798</Timestamp><Current dt:dt=""r8"">0</Current><DateUtc dt:dt=""string"">2016-12-22T07:24:38Z</DateUtc></FrequencyChange></FrequencyChanges></Clock>\n",2016-12-22 15:24,84.838,1,-1414621576,12-22-2016,15:24:38,7:24:38,39,head,11,4,38,,,,,,,0,,-999999,42,194586,1,1594,196180,,,,,,,,,aexppro111,block1,nv audio/hud.wav
nv,13,1,"<?xml version=""1.0""?>\n<Clock xmlns:dt=""urn:schemas-microsoft-com:datatypes""><Description dt:dt=""string"">E-Prime Primary Realtime Clock</Description><StartTime><Timestamp dt:dt=""int"">0</Timestamp><DateUtc dt:dt=""string"">2016-12-22T07:24:38Z</DateUtc></StartTime><FrequencyChanges><FrequencyChange><Frequency dt:dt=""r8"">3579545</Frequency><Timestamp dt:dt=""r8"">80189032798</Timestamp><Current dt:dt=""r8"">0</Current><DateUtc dt:dt=""string"">2016-12-22T07:24:38Z</DateUtc></FrequencyChange></FrequencyChanges></Clock>\n",2016-12-22 15:24,84.838,1,-1414621576,12-22-2016,15:24:38,7:24:38,40,heard,10,4,39,,,,,,,0,,-999999,54,196743,1,1311,198054,,,,,,,,,aexppro111,block1,nv audio/hood.wav
nv,13,1,"<?xml version=""1.0""?>\n<Clock xmlns:dt=""urn:schemas-microsoft-com:datatypes""><Description dt:dt=""string"">E-Prime Primary Realtime Clock</Description><StartTime><Timestamp dt:dt=""int"">0</Timestamp><DateUtc dt:dt=""string"">2016-12-22T07:24:38Z</DateUtc></StartTime><FrequencyChanges><FrequencyChange><Frequency dt:dt=""r8"">3579545</Frequency><Timestamp dt:dt=""r8"">80189032798</Timestamp><Current dt:dt=""r8"">0</Current><DateUtc dt:dt=""string"">2016-12-22T07:24:38Z</DateUtc></FrequencyChange></FrequencyChanges></Clock>\n",2016-12-22 15:24,84.838,1,-1414621576,12-22-2016,15:24:38,7:24:38,41,hud,2,4,40,,,,,,,0,,-999999,54,198617,1,1400,200017,,,,,,,,,aexppro111,block1,nv audio/hawed.wav
nv,13,1,"<?xml version=""1.0""?>\n<Clock xmlns:dt=""urn:schemas-microsoft-com:datatypes""><Description dt:dt=""string"">E-Prime Primary Realtime Clock</Description><StartTime><Timestamp dt:dt=""int"">0</Timestamp><DateUtc dt:dt=""string"">2016-12-22T07:24:38Z</DateUtc></StartTime><FrequencyChanges><FrequencyChange><Frequency dt:dt=""r8"">3579545</Frequency><Timestamp dt:dt=""r8"">80189032798</Timestamp><Current dt:dt=""r8"">0</Current><DateUtc dt:dt=""string"">2016-12-22T07:24:38Z</DateUtc></FrequencyChange></FrequencyChanges></Clock>\n",2016-12-22 15:24,84.838,1,-1414621576,12-22-2016,15:24:38,7:24:38,42,hoed,5,4,41,,,,,,,0,,-999999,42,200562,1,1729,202291,,,,,,,,,aexppro111,block1,nv audio/heard.wav
nv,13,1,"<?xml version=""1.0""?>\n<Clock xmlns:dt=""urn:schemas-microsoft-com:datatypes""><Description dt:dt=""string"">E-Prime Primary Realtime Clock</Description><StartTime><Timestamp dt:dt=""int"">0</Timestamp><DateUtc dt:dt=""string"">2016-12-22T07:24:38Z</DateUtc></StartTime><FrequencyChanges><FrequencyChange><Frequency dt:dt=""r8"">3579545</Frequency><Timestamp dt:dt=""r8"">80189032798</Timestamp><Current dt:dt=""r8"">0</Current><DateUtc dt:dt=""string"">2016-12-22T07:24:38Z</DateUtc></FrequencyChange></FrequencyChanges></Clock>\n",2016-12-22 15:24,84.838,1,-1414621576,12-22-2016,15:24:38,7:24:38,43,had,4,4,42,,,,,,,0,,-999999,66,202861,1,2191,205052,,,,,,,,,aexppro111,block1,nv audio/head.wav
nv,13,1,"<?xml version=""1.0""?>\n<Clock xmlns:dt=""urn:schemas-microsoft-com:datatypes""><Description dt:dt=""string"">E-Prime Primary Realtime Clock</Description><StartTime><Timestamp dt:dt=""int"">0</Timestamp><DateUtc dt:dt=""string"">2016-12-22T07:24:38Z</DateUtc></StartTime><FrequencyChanges><FrequencyChange><Frequency dt:dt=""r8"">3579545</Frequency><Timestamp dt:dt=""r8"">80189032798</Timestamp><Current dt:dt=""r8"">0</Current><DateUtc dt:dt=""string"">2016-12-22T07:24:38Z</DateUtc></FrequencyChange></FrequencyChanges></Clock>\n",2016-12-22 15:24,84.838,1,-1414621576,12-22-2016,15:24:38,7:24:38,44,head,1,4,43,,,,,,,0,,-999999,77,205642,1,1031,206673,,,,,,,,,aexppro111,block1,nv audio/had.wav
nv,13,1,"<?xml version=""1.0""?>\n<Clock xmlns:dt=""urn:schemas-microsoft-com:datatypes""><Description dt:dt=""string"">E-Prime Primary Realtime Clock</Description><StartTime><Timestamp dt:dt=""int"">0</Timestamp><DateUtc dt:dt=""string"">2016-12-22T07:24:38Z</DateUtc></StartTime><FrequencyChanges><FrequencyChange><Frequency dt:dt=""r8"">3579545</Frequency><Timestamp dt:dt=""r8"">80189032798</Timestamp><Current dt:dt=""r8"">0</Current><DateUtc dt:dt=""string"">2016-12-22T07:24:38Z</DateUtc></FrequencyChange></FrequencyChanges></Clock>\n",2016-12-22 15:24,84.838,1,-1414621576,12-22-2016,15:24:38,7:24:38,45,hud,8,4,44,,,,,,,0,,-999999,77,207257,1,1347,208604,,,,,,,,,aexppro111,block1,nv audio/hod.wav
nv,13,1,"<?xml version=""1.0""?>\n<Clock xmlns:dt=""urn:schemas-microsoft-com:datatypes""><Description dt:dt=""string"">E-Prime Primary Realtime Clock</Description><StartTime><Timestamp dt:dt=""int"">0</Timestamp><DateUtc dt:dt=""string"">2016-12-22T07:24:38Z</DateUtc></StartTime><FrequencyChanges><FrequencyChange><Frequency dt:dt=""r8"">3579545</Frequency><Timestamp dt:dt=""r8"">80189032798</Timestamp><Current dt:dt=""r8"">0</Current><DateUtc dt:dt=""string"">2016-12-22T07:24:38Z</DateUtc></FrequencyChange></FrequencyChanges></Clock>\n",2016-12-22 15:24,84.838,1,-1414621576,12-22-2016,15:24:38,7:24:38,46,head,3,4,45,,,,,,,0,,-999999,65,209178,1,1763,210941,,,,,,,,,aexppro111,block1,nv audio/hayed.wav
nv,13,1,"<?xml version=""1.0""?>\n<Clock xmlns:dt=""urn:schemas-microsoft-com:datatypes""><Description dt:dt=""string"">E-Prime Primary Realtime Clock</Description><StartTime><Timestamp dt:dt=""int"">0</Timestamp><DateUtc dt:dt=""string"">2016-12-22T07:24:38Z</DateUtc></StartTime><FrequencyChanges><FrequencyChange><Frequency dt:dt=""r8"">3579545</Frequency><Timestamp dt:dt=""r8"">80189032798</Timestamp><Current dt:dt=""r8"">0</Current><DateUtc dt:dt=""string"">2016-12-22T07:24:38Z</DateUtc></FrequencyChange></FrequencyChanges></Clock>\n",2016-12-22 15:24,84.838,1,-1414621576,12-22-2016,15:24:38,7:24:38,47,hoed,6,4,46,,,,,,,0,,-999999,42,211489,1,2580,214069,,,,,,,,,aexppro111,block1,nv audio/heed.wav
nv,13,1,"<?xml version=""1.0""?>\n<Clock xmlns:dt=""urn:schemas-microsoft-com:datatypes""><Description dt:dt=""string"">E-Prime Primary Realtime Clock</Description><StartTime><Timestamp dt:dt=""int"">0</Timestamp><DateUtc dt:dt=""string"">2016-12-22T07:24:38Z</DateUtc></StartTime><FrequencyChanges><FrequencyChange><Frequency dt:dt=""r8"">3579545</Frequency><Timestamp dt:dt=""r8"">80189032798</Timestamp><Current dt:dt=""r8"">0</Current><DateUtc dt:dt=""string"">2016-12-22T07:24:38Z</DateUtc></FrequencyChange></FrequencyChanges></Clock>\n",2016-12-22 15:24,84.838,1,-1414621576,12-22-2016,15:24:38,7:24:38,48,head,7,4,47,,,,,,,0,,-999999,42,214612,1,1409,216021,,,,,,,,,aexppro111,block1,nv audio/hid.wav
nv,13,1,"<?xml version=""1.0""?>\n<Clock xmlns:dt=""urn:schemas-microsoft-com:datatypes""><Description dt:dt=""string"">E-Prime Primary Realtime Clock</Description><StartTime><Timestamp dt:dt=""int"">0</Timestamp><DateUtc dt:dt=""string"">2016-12-22T07:24:38Z</DateUtc></StartTime><FrequencyChanges><FrequencyChange><Frequency dt:dt=""r8"">3579545</Frequency><Timestamp dt:dt=""r8"">80189032798</Timestamp><Current dt:dt=""r8"">0</Current><DateUtc dt:dt=""string"">2016-12-22T07:24:38Z</DateUtc></FrequencyChange></FrequencyChanges></Clock>\n",2016-12-22 15:24,84.838,1,-1414621576,12-22-2016,15:24:38,7:24:38,49,hoed,9,4,48,,,,,,,0,,-999999,42,216569,1,1235,217804,,,,,,,,,aexppro111,block1,nv audio/hoed.wav
nv,13,1,"<?xml version=""1.0""?>\n<Clock xmlns:dt=""urn:schemas-microsoft-com:datatypes""><Description dt:dt=""string"">E-Prime Primary Realtime Clock</Description><StartTime><Timestamp dt:dt=""int"">0</Timestamp><DateUtc dt:dt=""string"">2016-12-22T07:24:38Z</DateUtc></StartTime><FrequencyChanges><FrequencyChange><Frequency dt:dt=""r8"">3579545</Frequency><Timestamp dt:dt=""r8"">80189032798</Timestamp><Current dt:dt=""r8"">0</Current><DateUtc dt:dt=""string"">2016-12-22T07:24:38Z</DateUtc></FrequencyChange></FrequencyChanges></Clock>\n",2016-12-22 15:24,84.838,1,-1414621576,12-22-2016,15:24:38,7:24:38,50,had,3,5,49,,,,,,,0,,-999999,43,218361,1,1572,219933,,,,,,,,,aexppro111,block1,nv audio/hayed.wav
nv,13,1,"<?xml version=""1.0""?>\n<Clock xmlns:dt=""urn:schemas-microsoft-com:datatypes""><Description dt:dt=""string"">E-Prime Primary Realtime Clock</Description><StartTime><Timestamp dt:dt=""int"">0</Timestamp><DateUtc dt:dt=""string"">2016-12-22T07:24:38Z</DateUtc></StartTime><FrequencyChanges><FrequencyChange><Frequency dt:dt=""r8"">3579545</Frequency><Timestamp dt:dt=""r8"">80189032798</Timestamp><Current dt:dt=""r8"">0</Current><DateUtc dt:dt=""string"">2016-12-22T07:24:38Z</DateUtc></FrequencyChange></FrequencyChanges></Clock>\n",2016-12-22 15:24,84.838,1,-1414621576,12-22-2016,15:24:38,7:24:38,51,hud,8,5,50,,,,,,,0,,-999999,66,220506,1,1229,221735,,,,,,,,,aexppro111,block1,nv audio/hod.wav
nv,13,1,"<?xml version=""1.0""?>\n<Clock xmlns:dt=""urn:schemas-microsoft-com:datatypes""><Description dt:dt=""string"">E-Prime Primary Realtime Clock</Description><StartTime><Timestamp dt:dt=""int"">0</Timestamp><DateUtc dt:dt=""string"">2016-12-22T07:24:38Z</DateUtc></StartTime><FrequencyChanges><FrequencyChange><Frequency dt:dt=""r8"">3579545</Frequency><Timestamp dt:dt=""r8"">80189032798</Timestamp><Current dt:dt=""r8"">0</Current><DateUtc dt:dt=""string"">2016-12-22T07:24:38Z</DateUtc></FrequencyChange></FrequencyChanges></Clock>\n",2016-12-22 15:24,84.838,1,-1414621576,12-22-2016,15:24:38,7:24:38,52,hood,10,5,51,,,,,,,0,,-999999,42,222286,1,1232,223518,,,,,,,,,aexppro111,block1,nv audio/hood.wav
nv,13,1,"<?xml version=""1.0""?>\n<Clock xmlns:dt=""urn:schemas-microsoft-com:datatypes""><Description dt:dt=""string"">E-Prime Primary Realtime Clock</Description><StartTime><Timestamp dt:dt=""int"">0</Timestamp><DateUtc dt:dt=""string"">2016-12-22T07:24:38Z</DateUtc></StartTime><FrequencyChanges><FrequencyChange><Frequency dt:dt=""r8"">3579545</Frequency><Timestamp dt:dt=""r8"">80189032798</Timestamp><Current dt:dt=""r8"">0</Current><DateUtc dt:dt=""string"">2016-12-22T07:24:38Z</DateUtc></FrequencyChange></FrequencyChanges></Clock>\n",2016-12-22 15:24,84.838,1,-1414621576,12-22-2016,15:24:38,7:24:38,53,hood,9,5,52,,,,,,,0,,-999999,43,224066,1,1480,225546,,,,,,,,,aexppro111,block1,nv audio/hoed.wav
nv,13,1,"<?xml version=""1.0""?>\n<Clock xmlns:dt=""urn:schemas-microsoft-com:datatypes""><Description dt:dt=""string"">E-Prime Primary Realtime Clock</Description><StartTime><Timestamp dt:dt=""int"">0</Timestamp><DateUtc dt:dt=""string"">2016-12-22T07:24:38Z</DateUtc></StartTime><FrequencyChanges><FrequencyChange><Frequency dt:dt=""r8"">3579545</Frequency><Timestamp dt:dt=""r8"">80189032798</Timestamp><Current dt:dt=""r8"">0</Current><DateUtc dt:dt=""string"">2016-12-22T07:24:38Z</DateUtc></FrequencyChange></FrequencyChanges></Clock>\n",2016-12-22 15:24,84.838,1,-1414621576,12-22-2016,15:24:38,7:24:38,54,head,4,5,53,,,,,,,0,,-999999,42,226093,1,1148,227241,,,,,,,,,aexppro111,block1,nv audio/head.wav
nv,13,1,"<?xml version=""1.0""?>\n<Clock xmlns:dt=""urn:schemas-microsoft-com:datatypes""><Description dt:dt=""string"">E-Prime Primary Realtime Clock</Description><StartTime><Timestamp dt:dt=""int"">0</Timestamp><DateUtc dt:dt=""string"">2016-12-22T07:24:38Z</DateUtc></StartTime><FrequencyChanges><FrequencyChange><Frequency dt:dt=""r8"">3579545</Frequency><Timestamp dt:dt=""r8"">80189032798</Timestamp><Current dt:dt=""r8"">0</Current><DateUtc dt:dt=""string"">2016-12-22T07:24:38Z</DateUtc></FrequencyChange></FrequencyChanges></Clock>\n",2016-12-22 15:24,84.838,1,-1414621576,12-22-2016,15:24:38,7:24:38,55,hoed,12,5,54,,,,,,,0,,-999999,54,227802,1,2271,230073,,,,,,,,,aexppro111,block1,nv audio/whod.wav
nv,13,1,"<?xml version=""1.0""?>\n<Clock xmlns:dt=""urn:schemas-microsoft-com:datatypes""><Description dt:dt=""string"">E-Prime Primary Realtime Clock</Description><StartTime><Timestamp dt:dt=""int"">0</Timestamp><DateUtc dt:dt=""string"">2016-12-22T07:24:38Z</DateUtc></StartTime><FrequencyChanges><FrequencyChange><Frequency dt:dt=""r8"">3579545</Frequency><Timestamp dt:dt=""r8"">80189032798</Timestamp><Current dt:dt=""r8"">0</Current><DateUtc dt:dt=""string"">2016-12-22T07:24:38Z</DateUtc></FrequencyChange></FrequencyChanges></Clock>\n",2016-12-22 15:24,84.838,1,-1414621576,12-22-2016,15:24:38,7:24:38,56,had,7,5,55,,,,,,,0,,-999999,31,230608,1,2096,232704,,,,,,,,,aexppro111,block1,nv audio/hid.wav
nv,13,1,"<?xml version=""1.0""?>\n<Clock xmlns:dt=""urn:schemas-microsoft-com:datatypes""><Description dt:dt=""string"">E-Prime Primary Realtime Clock</Description><StartTime><Timestamp dt:dt=""int"">0</Timestamp><DateUtc dt:dt=""string"">2016-12-22T07:24:38Z</DateUtc></StartTime><FrequencyChanges><FrequencyChange><Frequency dt:dt=""r8"">3579545</Frequency><Timestamp dt:dt=""r8"">80189032798</Timestamp><Current dt:dt=""r8"">0</Current><DateUtc dt:dt=""string"">2016-12-22T07:24:38Z</DateUtc></FrequencyChange></FrequencyChanges></Clock>\n",2016-12-22 15:24,84.838,1,-1414621576,12-22-2016,15:24:38,7:24:38,57,hud,5,5,56,,,,,,,0,,-999999,31,233248,1,2177,235425,,,,,,,,,aexppro111,block1,nv audio/heard.wav
nv,13,1,"<?xml version=""1.0""?>\n<Clock xmlns:dt=""urn:schemas-microsoft-com:datatypes""><Description dt:dt=""string"">E-Prime Primary Realtime Clock</Description><StartTime><Timestamp dt:dt=""int"">0</Timestamp><DateUtc dt:dt=""string"">2016-12-22T07:24:38Z</DateUtc></StartTime><FrequencyChanges><FrequencyChange><Frequency dt:dt=""r8"">3579545</Frequency><Timestamp dt:dt=""r8"">80189032798</Timestamp><Current dt:dt=""r8"">0</Current><DateUtc dt:dt=""string"">2016-12-22T07:24:38Z</DateUtc></FrequencyChange></FrequencyChanges></Clock>\n",2016-12-22 15:24,84.838,1,-1414621576,12-22-2016,15:24:38,7:24:38,58,hud,1,5,57,,,,,,,0,,-999999,43,235971,1,1007,236978,,,,,,,,,aexppro111,block1,nv audio/had.wav
nv,13,1,"<?xml version=""1.0""?>\n<Clock xmlns:dt=""urn:schemas-microsoft-com:datatypes""><Description dt:dt=""string"">E-Prime Primary Realtime Clock</Description><StartTime><Timestamp dt:dt=""int"">0</Timestamp><DateUtc dt:dt=""string"">2016-12-22T07:24:38Z</DateUtc></StartTime><FrequencyChanges><FrequencyChange><Frequency dt:dt=""r8"">3579545</Frequency><Timestamp dt:dt=""r8"">80189032798</Timestamp><Current dt:dt=""r8"">0</Current><DateUtc dt:dt=""string"">2016-12-22T07:24:38Z</DateUtc></FrequencyChange></FrequencyChanges></Clock>\n",2016-12-22 15:24,84.838,1,-1414621576,12-22-2016,15:24:38,7:24:38,59,had,6,5,58,,,,,,,0,,-999999,54,237538,1,2807,240345,,,,,,,,,aexppro111,block1,nv audio/heed.wav
nv,13,1,"<?xml version=""1.0""?>\n<Clock xmlns:dt=""urn:schemas-microsoft-com:datatypes""><Description dt:dt=""string"">E-Prime Primary Realtime Clock</Description><StartTime><Timestamp dt:dt=""int"">0</Timestamp><DateUtc dt:dt=""string"">2016-12-22T07:24:38Z</DateUtc></StartTime><FrequencyChanges><FrequencyChange><Frequency dt:dt=""r8"">3579545</Frequency><Timestamp dt:dt=""r8"">80189032798</Timestamp><Current dt:dt=""r8"">0</Current><DateUtc dt:dt=""string"">2016-12-22T07:24:38Z</DateUtc></FrequencyChange></FrequencyChanges></Clock>\n",2016-12-22 15:24,84.838,1,-1414621576,12-22-2016,15:24:38,7:24:38,60,hud,2,5,59,,,,,,,0,,-999999,43,240898,1,1803,242701,,,,,,,,,aexppro111,block1,nv audio/hawed.wav
nv,13,1,"<?xml version=""1.0""?>\n<Clock xmlns:dt=""urn:schemas-microsoft-com:datatypes""><Description dt:dt=""string"">E-Prime Primary Realtime Clock</Description><StartTime><Timestamp dt:dt=""int"">0</Timestamp><DateUtc dt:dt=""string"">2016-12-22T07:24:38Z</DateUtc></StartTime><FrequencyChanges><FrequencyChange><Frequency dt:dt=""r8"">3579545</Frequency><Timestamp dt:dt=""r8"">80189032798</Timestamp><Current dt:dt=""r8"">0</Current><DateUtc dt:dt=""string"">2016-12-22T07:24:38Z</DateUtc></FrequencyChange></FrequencyChanges></Clock>\n",2016-12-22 15:24,84.838,1,-1414621576,12-22-2016,15:24:38,7:24:38,61,head,11,5,60,,,,,,,0,,-999999,42,243255,1,1191,244446,,,,,,,,,aexppro111,block1,nv audio/hud.wav
nv,13,1,"<?xml version=""1.0""?>\n<Clock xmlns:dt=""urn:schemas-microsoft-com:datatypes""><Description dt:dt=""string"">E-Prime Primary Realtime Clock</Description><StartTime><Timestamp dt:dt=""int"">0</Timestamp><DateUtc dt:dt=""string"">2016-12-22T07:24:38Z</DateUtc></StartTime><FrequencyChanges><FrequencyChange><Frequency dt:dt=""r8"">3579545</Frequency><Timestamp dt:dt=""r8"">80189032798</Timestamp><Current dt:dt=""r8"">0</Current><DateUtc dt:dt=""string"">2016-12-22T07:24:38Z</DateUtc></FrequencyChange></FrequencyChanges></Clock>\n",2016-12-22 15:24,84.838,1,-1414621576,12-22-2016,15:24:38,7:24:38,62,head,11,6,61,,,,,,,0,,-999999,43,245000,1,887,245887,,,,,,,,,aexppro111,block1,nv audio/hud.wav
nv,13,1,"<?xml version=""1.0""?>\n<Clock xmlns:dt=""urn:schemas-microsoft-com:datatypes""><Description dt:dt=""string"">E-Prime Primary Realtime Clock</Description><StartTime><Timestamp dt:dt=""int"">0</Timestamp><DateUtc dt:dt=""string"">2016-12-22T07:24:38Z</DateUtc></StartTime><FrequencyChanges><FrequencyChange><Frequency dt:dt=""r8"">3579545</Frequency><Timestamp dt:dt=""r8"">80189032798</Timestamp><Current dt:dt=""r8"">0</Current><DateUtc dt:dt=""string"">2016-12-22T07:24:38Z</DateUtc></FrequencyChange></FrequencyChanges></Clock>\n",2016-12-22 15:24,84.838,1,-1414621576,12-22-2016,15:24:38,7:24:38,63,had,6,6,62,,,,,,,0,,-999999,43,246438,1,2784,249222,,,,,,,,,aexppro111,block1,nv audio/heed.wav
nv,13,1,"<?xml version=""1.0""?>\n<Clock xmlns:dt=""urn:schemas-microsoft-com:datatypes""><Description dt:dt=""string"">E-Prime Primary Realtime Clock</Description><StartTime><Timestamp dt:dt=""int"">0</Timestamp><DateUtc dt:dt=""string"">2016-12-22T07:24:38Z</DateUtc></StartTime><FrequencyChanges><FrequencyChange><Frequency dt:dt=""r8"">3579545</Frequency><Timestamp dt:dt=""r8"">80189032798</Timestamp><Current dt:dt=""r8"">0</Current><DateUtc dt:dt=""string"">2016-12-22T07:24:38Z</DateUtc></FrequencyChange></FrequencyChanges></Clock>\n",2016-12-22 15:24,84.838,1,-1414621576,12-22-2016,15:24:38,7:24:38,64,head,7,6,63,,,,,,,0,,-999999,42,249773,1,1269,251042,,,,,,,,,aexppro111,block1,nv audio/hid.wav
nv,13,1,"<?xml version=""1.0""?>\n<Clock xmlns:dt=""urn:schemas-microsoft-com:datatypes""><Description dt:dt=""string"">E-Prime Primary Realtime Clock</Description><StartTime><Timestamp dt:dt=""int"">0</Timestamp><DateUtc dt:dt=""string"">2016-12-22T07:24:38Z</DateUtc></StartTime><FrequencyChanges><FrequencyChange><Frequency dt:dt=""r8"">3579545</Frequency><Timestamp dt:dt=""r8"">80189032798</Timestamp><Current dt:dt=""r8"">0</Current><DateUtc dt:dt=""string"">2016-12-22T07:24:38Z</DateUtc></FrequencyChange></FrequencyChanges></Clock>\n",2016-12-22 15:24,84.838,1,-1414621576,12-22-2016,15:24:38,7:24:38,65,hud,8,6,64,,,,,,,0,,-999999,31,251577,1,2026,253603,,,,,,,,,aexppro111,block1,nv audio/hod.wav
nv,13,1,"<?xml version=""1.0""?>\n<Clock xmlns:dt=""urn:schemas-microsoft-com:datatypes""><Description dt:dt=""string"">E-Prime Primary Realtime Clock</Description><StartTime><Timestamp dt:dt=""int"">0</Timestamp><DateUtc dt:dt=""string"">2016-12-22T07:24:38Z</DateUtc></StartTime><FrequencyChanges><FrequencyChange><Frequency dt:dt=""r8"">3579545</Frequency><Timestamp dt:dt=""r8"">80189032798</Timestamp><Current dt:dt=""r8"">0</Current><DateUtc dt:dt=""string"">2016-12-22T07:24:38Z</DateUtc></FrequencyChange></FrequencyChanges></Clock>\n",2016-12-22 15:24,84.838,1,-1414621576,12-22-2016,15:24:38,7:24:38,66,head,1,6,65,,,,,,,0,,-999999,42,254158,1,1248,255406,,,,,,,,,aexppro111,block1,nv audio/had.wav
nv,13,1,"<?xml version=""1.0""?>\n<Clock xmlns:dt=""urn:schemas-microsoft-com:datatypes""><Description dt:dt=""string"">E-Prime Primary Realtime Clock</Description><StartTime><Timestamp dt:dt=""int"">0</Timestamp><DateUtc dt:dt=""string"">2016-12-22T07:24:38Z</DateUtc></StartTime><FrequencyChanges><FrequencyChange><Frequency dt:dt=""r8"">3579545</Frequency><Timestamp dt:dt=""r8"">80189032798</Timestamp><Current dt:dt=""r8"">0</Current><DateUtc dt:dt=""string"">2016-12-22T07:24:38Z</DateUtc></FrequencyChange></FrequencyChanges></Clock>\n",2016-12-22 15:24,84.838,1,-1414621576,12-22-2016,15:24:38,7:24:38,67,head,4,6,66,,,,,,,0,,-999999,65,255973,1,741,256714,,,,,,,,,aexppro111,block1,nv audio/head.wav
nv,13,1,"<?xml version=""1.0""?>\n<Clock xmlns:dt=""urn:schemas-microsoft-com:datatypes""><Description dt:dt=""string"">E-Prime Primary Realtime Clock</Description><StartTime><Timestamp dt:dt=""int"">0</Timestamp><DateUtc dt:dt=""string"">2016-12-22T07:24:38Z</DateUtc></StartTime><FrequencyChanges><FrequencyChange><Frequency dt:dt=""r8"">3579545</Frequency><Timestamp dt:dt=""r8"">80189032798</Timestamp><Current dt:dt=""r8"">0</Current><DateUtc dt:dt=""string"">2016-12-22T07:24:38Z</DateUtc></FrequencyChange></FrequencyChanges></Clock>\n",2016-12-22 15:24,84.838,1,-1414621576,12-22-2016,15:24:38,7:24:38,68,hud,2,6,67,,,,,,,0,,-999999,42,257258,1,1323,258581,,,,,,,,,aexppro111,block1,nv audio/hawed.wav
nv,13,1,"<?xml version=""1.0""?>\n<Clock xmlns:dt=""urn:schemas-microsoft-com:datatypes""><Description dt:dt=""string"">E-Prime Primary Realtime Clock</Description><StartTime><Timestamp dt:dt=""int"">0</Timestamp><DateUtc dt:dt=""string"">2016-12-22T07:24:38Z</DateUtc></StartTime><FrequencyChanges><FrequencyChange><Frequency dt:dt=""r8"">3579545</Frequency><Timestamp dt:dt=""r8"">80189032798</Timestamp><Current dt:dt=""r8"">0</Current><DateUtc dt:dt=""string"">2016-12-22T07:24:38Z</DateUtc></FrequencyChange></FrequencyChanges></Clock>\n",2016-12-22 15:24,84.838,1,-1414621576,12-22-2016,15:24:38,7:24:38,69,had,3,6,68,,,,,,,0,,-999999,42,259132,1,3299,262431,,,,,,,,,aexppro111,block1,nv audio/hayed.wav
nv,13,1,"<?xml version=""1.0""?>\n<Clock xmlns:dt=""urn:schemas-microsoft-com:datatypes""><Description dt:dt=""string"">E-Prime Primary Realtime Clock</Description><StartTime><Timestamp dt:dt=""int"">0</Timestamp><DateUtc dt:dt=""string"">2016-12-22T07:24:38Z</DateUtc></StartTime><FrequencyChanges><FrequencyChange><Frequency dt:dt=""r8"">3579545</Frequency><Timestamp dt:dt=""r8"">80189032798</Timestamp><Current dt:dt=""r8"">0</Current><DateUtc dt:dt=""string"">2016-12-22T07:24:38Z</DateUtc></FrequencyChange></FrequencyChanges></Clock>\n",2016-12-22 15:24,84.838,1,-1414621576,12-22-2016,15:24:38,7:24:38,70,hoed,5,6,69,,,,,,,0,,-999999,42,262975,1,1574,264549,,,,,,,,,aexppro111,block1,nv audio/heard.wav
nv,13,1,"<?xml version=""1.0""?>\n<Clock xmlns:dt=""urn:schemas-microsoft-com:datatypes""><Description dt:dt=""string"">E-Prime Primary Realtime Clock</Description><StartTime><Timestamp dt:dt=""int"">0</Timestamp><DateUtc dt:dt=""string"">2016-12-22T07:24:38Z</DateUtc></StartTime><FrequencyChanges><FrequencyChange><Frequency dt:dt=""r8"">3579545</Frequency><Timestamp dt:dt=""r8"">80189032798</Timestamp><Current dt:dt=""r8"">0</Current><DateUtc dt:dt=""string"">2016-12-22T07:24:38Z</DateUtc></FrequencyChange></FrequencyChanges></Clock>\n",2016-12-22 15:24,84.838,1,-1414621576,12-22-2016,15:24:38,7:24:38,71,hood,10,6,70,,,,,,,0,,-999999,78,265132,1,1539,266671,,,,,,,,,aexppro111,block1,nv audio/hood.wav
nv,13,1,"<?xml version=""1.0""?>\n<Clock xmlns:dt=""urn:schemas-microsoft-com:datatypes""><Description dt:dt=""string"">E-Prime Primary Realtime Clock</Description><StartTime><Timestamp dt:dt=""int"">0</Timestamp><DateUtc dt:dt=""string"">2016-12-22T07:24:38Z</DateUtc></StartTime><FrequencyChanges><FrequencyChange><Frequency dt:dt=""r8"">3579545</Frequency><Timestamp dt:dt=""r8"">80189032798</Timestamp><Current dt:dt=""r8"">0</Current><DateUtc dt:dt=""string"">2016-12-22T07:24:38Z</DateUtc></FrequencyChange></FrequencyChanges></Clock>\n",2016-12-22 15:24,84.838,1,-1414621576,12-22-2016,15:24:38,7:24:38,72,whod,9,6,71,,,,,,,0,,-999999,78,267254,1,2251,269505,,,,,,,,,aexppro111,block1,nv audio/hoed.wav
nv,13,1,"<?xml version=""1.0""?>\n<Clock xmlns:dt=""urn:schemas-microsoft-com:datatypes""><Description dt:dt=""string"">E-Prime Primary Realtime Clock</Description><StartTime><Timestamp dt:dt=""int"">0</Timestamp><DateUtc dt:dt=""string"">2016-12-22T07:24:38Z</DateUtc></StartTime><FrequencyChanges><FrequencyChange><Frequency dt:dt=""r8"">3579545</Frequency><Timestamp dt:dt=""r8"">80189032798</Timestamp><Current dt:dt=""r8"">0</Current><DateUtc dt:dt=""string"">2016-12-22T07:24:38Z</DateUtc></FrequencyChange></FrequencyChanges></Clock>\n",2016-12-22 15:24,84.838,1,-1414621576,12-22-2016,15:24:38,7:24:38,73,hood,12,6,72,,,,,,,0,,-999999,66,270083,1,4282,274365,,,,,,,,,aexppro111,block1,nv audio/whod.wav
nv,13,1,"<?xml version=""1.0""?>\n<Clock xmlns:dt=""urn:schemas-microsoft-com:datatypes""><Description dt:dt=""string"">E-Prime Primary Realtime Clock</Description><StartTime><Timestamp dt:dt=""int"">0</Timestamp><DateUtc dt:dt=""string"">2016-12-22T07:24:38Z</DateUtc></StartTime><FrequencyChanges><FrequencyChange><Frequency dt:dt=""r8"">3579545</Frequency><Timestamp dt:dt=""r8"">80189032798</Timestamp><Current dt:dt=""r8"">0</Current><DateUtc dt:dt=""string"">2016-12-22T07:24:38Z</DateUtc></FrequencyChange></FrequencyChanges></Clock>\n",2016-12-22 15:24,84.838,1,-1414621576,12-22-2016,15:24:38,7:24:38,74,head,4,7,73,,,,,,,0,,-999999,31,274904,1,2091,276995,,,,,,,,,aexppro111,block1,nv audio/head.wav
nv,13,1,"<?xml version=""1.0""?>\n<Clock xmlns:dt=""urn:schemas-microsoft-com:datatypes""><Description dt:dt=""string"">E-Prime Primary Realtime Clock</Description><StartTime><Timestamp dt:dt=""int"">0</Timestamp><DateUtc dt:dt=""string"">2016-12-22T07:24:38Z</DateUtc></StartTime><FrequencyChanges><FrequencyChange><Frequency dt:dt=""r8"">3579545</Frequency><Timestamp dt:dt=""r8"">80189032798</Timestamp><Current dt:dt=""r8"">0</Current><DateUtc dt:dt=""string"">2016-12-22T07:24:38Z</DateUtc></FrequencyChange></FrequencyChanges></Clock>\n",2016-12-22 15:24,84.838,1,-1414621576,12-22-2016,15:24:38,7:24:38,75,hoed,10,7,74,,,,,,,0,,-999999,65,277567,1,1465,279032,,,,,,,,,aexppro111,block1,nv audio/hood.wav
nv,13,1,"<?xml version=""1.0""?>\n<Clock xmlns:dt=""urn:schemas-microsoft-com:datatypes""><Description dt:dt=""string"">E-Prime Primary Realtime Clock</Description><StartTime><Timestamp dt:dt=""int"">0</Timestamp><DateUtc dt:dt=""string"">2016-12-22T07:24:38Z</DateUtc></StartTime><FrequencyChanges><FrequencyChange><Frequency dt:dt=""r8"">3579545</Frequency><Timestamp dt:dt=""r8"">80189032798</Timestamp><Current dt:dt=""r8"">0</Current><DateUtc dt:dt=""string"">2016-12-22T07:24:38Z</DateUtc></FrequencyChange></FrequencyChanges></Clock>\n",2016-12-22 15:24,84.838,1,-1414621576,12-22-2016,15:24:38,7:24:38,76,head,11,7,75,,,,,,,0,,-999999,42,279583,1,1649,281232,,,,,,,,,aexppro111,block1,nv audio/hud.wav
nv,13,1,"<?xml version=""1.0""?>\n<Clock xmlns:dt=""urn:schemas-microsoft-com:datatypes""><Description dt:dt=""string"">E-Prime Primary Realtime Clock</Description><StartTime><Timestamp dt:dt=""int"">0</Timestamp><DateUtc dt:dt=""string"">2016-12-22T07:24:38Z</DateUtc></StartTime><FrequencyChanges><FrequencyChange><Frequency dt:dt=""r8"">3579545</Frequency><Timestamp dt:dt=""r8"">80189032798</Timestamp><Current dt:dt=""r8"">0</Current><DateUtc dt:dt=""string"">2016-12-22T07:24:38Z</DateUtc></FrequencyChange></FrequencyChanges></Clock>\n",2016-12-22 15:24,84.838,1,-1414621576,12-22-2016,15:24:38,7:24:38,77,head,7,7,76,,,,,,,0,,-999999,42,281787,1,1044,282831,,,,,,,,,aexppro111,block1,nv audio/hid.wav
nv,13,1,"<?xml version=""1.0""?>\n<Clock xmlns:dt=""urn:schemas-microsoft-com:datatypes""><Description dt:dt=""string"">E-Prime Primary Realtime Clock</Description><StartTime><Timestamp dt:dt=""int"">0</Timestamp><DateUtc dt:dt=""string"">2016-12-22T07:24:38Z</DateUtc></StartTime><FrequencyChanges><FrequencyChange><Frequency dt:dt=""r8"">3579545</Frequency><Timestamp dt:dt=""r8"">80189032798</Timestamp><Current dt:dt=""r8"">0</Current><DateUtc dt:dt=""string"">2016-12-22T07:24:38Z</DateUtc></FrequencyChange></FrequencyChanges></Clock>\n",2016-12-22 15:24,84.838,1,-1414621576,12-22-2016,15:24:38,7:24:38,78,had,3,7,77,,,,,,,0,,-999999,43,283379,1,885,284264,,,,,,,,,aexppro111,block1,nv audio/hayed.wav
nv,13,1,"<?xml version=""1.0""?>\n<Clock xmlns:dt=""urn:schemas-microsoft-com:datatypes""><Description dt:dt=""string"">E-Prime Primary Realtime Clock</Description><StartTime><Timestamp dt:dt=""int"">0</Timestamp><DateUtc dt:dt=""string"">2016-12-22T07:24:38Z</DateUtc></StartTime><FrequencyChanges><FrequencyChange><Frequency dt:dt=""r8"">3579545</Frequency><Timestamp dt:dt=""r8"">80189032798</Timestamp><Current dt:dt=""r8"">0</Current><DateUtc dt:dt=""string"">2016-12-22T07:24:38Z</DateUtc></FrequencyChange></FrequencyChanges></Clock>\n",2016-12-22 15:24,84.838,1,-1414621576,12-22-2016,15:24:38,7:24:38,79,hud,2,7,78,,,,,,,0,,-999999,43,284817,1,1368,286185,,,,,,,,,aexppro111,block1,nv audio/hawed.wav
nv,13,1,"<?xml version=""1.0""?>\n<Clock xmlns:dt=""urn:schemas-microsoft-com:datatypes""><Description dt:dt=""string"">E-Prime Primary Realtime Clock</Description><StartTime><Timestamp dt:dt=""int"">0</Timestamp><DateUtc dt:dt=""string"">2016-12-22T07:24:38Z</DateUtc></StartTime><FrequencyChanges><FrequencyChange><Frequency dt:dt=""r8"">3579545</Frequency><Timestamp dt:dt=""r8"">80189032798</Timestamp><Current dt:dt=""r8"">0</Current><DateUtc dt:dt=""string"">2016-12-22T07:24:38Z</DateUtc></FrequencyChange></FrequencyChanges></Clock>\n",2016-12-22 15:24,84.838,1,-1414621576,12-22-2016,15:24:38,7:24:38,80,hoed,9,7,79,,,,,,,0,,-999999,42,286738,1,4510,291248,,,,,,,,,aexppro111,block1,nv audio/hoed.wav
nv,13,1,"<?xml version=""1.0""?>\n<Clock xmlns:dt=""urn:schemas-microsoft-com:datatypes""><Description dt:dt=""string"">E-Prime Primary Realtime Clock</Description><StartTime><Timestamp dt:dt=""int"">0</Timestamp><DateUtc dt:dt=""string"">2016-12-22T07:24:38Z</DateUtc></StartTime><FrequencyChanges><FrequencyChange><Frequency dt:dt=""r8"">3579545</Frequency><Timestamp dt:dt=""r8"">80189032798</Timestamp><Current dt:dt=""r8"">0</Current><DateUtc dt:dt=""string"">2016-12-22T07:24:38Z</DateUtc></FrequencyChange></FrequencyChanges></Clock>\n",2016-12-22 15:24,84.838,1,-1414621576,12-22-2016,15:24:38,7:24:38,81,hood,12,7,80,,,,,,,0,,-999999,66,291818,1,1203,293021,,,,,,,,,aexppro111,block1,nv audio/whod.wav
nv,13,1,"<?xml version=""1.0""?>\n<Clock xmlns:dt=""urn:schemas-microsoft-com:datatypes""><Description dt:dt=""string"">E-Prime Primary Realtime Clock</Description><StartTime><Timestamp dt:dt=""int"">0</Timestamp><DateUtc dt:dt=""string"">2016-12-22T07:24:38Z</DateUtc></StartTime><FrequencyChanges><FrequencyChange><Frequency dt:dt=""r8"">3579545</Frequency><Timestamp dt:dt=""r8"">80189032798</Timestamp><Current dt:dt=""r8"">0</Current><DateUtc dt:dt=""string"">2016-12-22T07:24:38Z</DateUtc></FrequencyChange></FrequencyChanges></Clock>\n",2016-12-22 15:24,84.838,1,-1414621576,12-22-2016,15:24:38,7:24:38,82,heard,5,7,81,,,,,,,0,,-999999,66,293598,1,2464,296062,,,,,,,,,aexppro111,block1,nv audio/heard.wav
nv,13,1,"<?xml version=""1.0""?>\n<Clock xmlns:dt=""urn:schemas-microsoft-com:datatypes""><Description dt:dt=""string"">E-Prime Primary Realtime Clock</Description><StartTime><Timestamp dt:dt=""int"">0</Timestamp><DateUtc dt:dt=""string"">2016-12-22T07:24:38Z</DateUtc></StartTime><FrequencyChanges><FrequencyChange><Frequency dt:dt=""r8"">3579545</Frequency><Timestamp dt:dt=""r8"">80189032798</Timestamp><Current dt:dt=""r8"">0</Current><DateUtc dt:dt=""string"">2016-12-22T07:24:38Z</DateUtc></FrequencyChange></FrequencyChanges></Clock>\n",2016-12-22 15:24,84.838,1,-1414621576,12-22-2016,15:24:38,7:24:38,83,hud,8,7,82,,,,,,,0,,-999999,42,296615,1,1618,298233,,,,,,,,,aexppro111,block1,nv audio/hod.wav
nv,13,1,"<?xml version=""1.0""?>\n<Clock xmlns:dt=""urn:schemas-microsoft-com:datatypes""><Description dt:dt=""string"">E-Prime Primary Realtime Clock</Description><StartTime><Timestamp dt:dt=""int"">0</Timestamp><DateUtc dt:dt=""string"">2016-12-22T07:24:38Z</DateUtc></StartTime><FrequencyChanges><FrequencyChange><Frequency dt:dt=""r8"">3579545</Frequency><Timestamp dt:dt=""r8"">80189032798</Timestamp><Current dt:dt=""r8"">0</Current><DateUtc dt:dt=""string"">2016-12-22T07:24:38Z</DateUtc></FrequencyChange></FrequencyChanges></Clock>\n",2016-12-22 15:24,84.838,1,-1414621576,12-22-2016,15:24:38,7:24:38,84,hod,6,7,83,,,,,,,0,,-999999,42,298784,1,3272,302056,,,,,,,,,aexppro111,block1,nv audio/heed.wav
nv,13,1,"<?xml version=""1.0""?>\n<Clock xmlns:dt=""urn:schemas-microsoft-com:datatypes""><Description dt:dt=""string"">E-Prime Primary Realtime Clock</Description><StartTime><Timestamp dt:dt=""int"">0</Timestamp><DateUtc dt:dt=""string"">2016-12-22T07:24:38Z</DateUtc></StartTime><FrequencyChanges><FrequencyChange><Frequency dt:dt=""r8"">3579545</Frequency><Timestamp dt:dt=""r8"">80189032798</Timestamp><Current dt:dt=""r8"">0</Current><DateUtc dt:dt=""string"">2016-12-22T07:24:38Z</DateUtc></FrequencyChange></FrequencyChanges></Clock>\n",2016-12-22 15:24,84.838,1,-1414621576,12-22-2016,15:24:38,7:24:38,85,head,1,7,84,,,,,,,0,,-999999,42,302603,1,1414,304017,,,,,,,,,aexppro111,block1,nv audio/had.wav
nv,13,1,"<?xml version=""1.0""?>\n<Clock xmlns:dt=""urn:schemas-microsoft-com:datatypes""><Description dt:dt=""string"">E-Prime Primary Realtime Clock</Description><StartTime><Timestamp dt:dt=""int"">0</Timestamp><DateUtc dt:dt=""string"">2016-12-22T07:24:38Z</DateUtc></StartTime><FrequencyChanges><FrequencyChange><Frequency dt:dt=""r8"">3579545</Frequency><Timestamp dt:dt=""r8"">80189032798</Timestamp><Current dt:dt=""r8"">0</Current><DateUtc dt:dt=""string"">2016-12-22T07:24:38Z</DateUtc></FrequencyChange></FrequencyChanges></Clock>\n",2016-12-22 15:24,84.838,1,-1414621576,12-22-2016,15:24:38,7:24:38,86,hud,10,8,85,,,,,,,0,,-999999,54,304584,1,1830,306414,,,,,,,,,aexppro111,block1,nv audio/hood.wav
nv,13,1,"<?xml version=""1.0""?>\n<Clock xmlns:dt=""urn:schemas-microsoft-com:datatypes""><Description dt:dt=""string"">E-Prime Primary Realtime Clock</Description><StartTime><Timestamp dt:dt=""int"">0</Timestamp><DateUtc dt:dt=""string"">2016-12-22T07:24:38Z</DateUtc></StartTime><FrequencyChanges><FrequencyChange><Frequency dt:dt=""r8"">3579545</Frequency><Timestamp dt:dt=""r8"">80189032798</Timestamp><Current dt:dt=""r8"">0</Current><DateUtc dt:dt=""string"">2016-12-22T07:24:38Z</DateUtc></FrequencyChange></FrequencyChanges></Clock>\n",2016-12-22 15:24,84.838,1,-1414621576,12-22-2016,15:24:38,7:24:38,87,had,3,8,86,,,,,,,0,,-999999,66,306988,1,1409,308397,,,,,,,,,aexppro111,block1,nv audio/hayed.wav
nv,13,1,"<?xml version=""1.0""?>\n<Clock xmlns:dt=""urn:schemas-microsoft-com:datatypes""><Description dt:dt=""string"">E-Prime Primary Realtime Clock</Description><StartTime><Timestamp dt:dt=""int"">0</Timestamp><DateUtc dt:dt=""string"">2016-12-22T07:24:38Z</DateUtc></StartTime><FrequencyChanges><FrequencyChange><Frequency dt:dt=""r8"">3579545</Frequency><Timestamp dt:dt=""r8"">80189032798</Timestamp><Current dt:dt=""r8"">0</Current><DateUtc dt:dt=""string"">2016-12-22T07:24:38Z</DateUtc></FrequencyChange></FrequencyChanges></Clock>\n",2016-12-22 15:24,84.838,1,-1414621576,12-22-2016,15:24:38,7:24:38,88,head,11,8,87,,,,,,,0,,-999999,42,308945,1,1186,310131,,,,,,,,,aexppro111,block1,nv audio/hud.wav
nv,13,1,"<?xml version=""1.0""?>\n<Clock xmlns:dt=""urn:schemas-microsoft-com:datatypes""><Description dt:dt=""string"">E-Prime Primary Realtime Clock</Description><StartTime><Timestamp dt:dt=""int"">0</Timestamp><DateUtc dt:dt=""string"">2016-12-22T07:24:38Z</DateUtc></StartTime><FrequencyChanges><FrequencyChange><Frequency dt:dt=""r8"">3579545</Frequency><Timestamp dt:dt=""r8"">80189032798</Timestamp><Current dt:dt=""r8"">0</Current><DateUtc dt:dt=""string"">2016-12-22T07:24:38Z</DateUtc></FrequencyChange></FrequencyChanges></Clock>\n",2016-12-22 15:24,84.838,1,-1414621576,12-22-2016,15:24:38,7:24:38,89,hud,12,8,88,,,,,,,0,,-999999,54,310689,1,790,311479,,,,,,,,,aexppro111,block1,nv audio/whod.wav
nv,13,1,"<?xml version=""1.0""?>\n<Clock xmlns:dt=""urn:schemas-microsoft-com:datatypes""><Description dt:dt=""string"">E-Prime Primary Realtime Clock</Description><StartTime><Timestamp dt:dt=""int"">0</Timestamp><DateUtc dt:dt=""string"">2016-12-22T07:24:38Z</DateUtc></StartTime><FrequencyChanges><FrequencyChange><Frequency dt:dt=""r8"">3579545</Frequency><Timestamp dt:dt=""r8"">80189032798</Timestamp><Current dt:dt=""r8"">0</Current><DateUtc dt:dt=""string"">2016-12-22T07:24:38Z</DateUtc></FrequencyChange></FrequencyChanges></Clock>\n",2016-12-22 15:24,84.838,1,-1414621576,12-22-2016,15:24:38,7:24:38,90,hawed,6,8,89,,,,,,,0,,-999999,42,312033,1,2592,314625,,,,,,,,,aexppro111,block1,nv audio/heed.wav
nv,13,1,"<?xml version=""1.0""?>\n<Clock xmlns:dt=""urn:schemas-microsoft-com:datatypes""><Description dt:dt=""string"">E-Prime Primary Realtime Clock</Description><StartTime><Timestamp dt:dt=""int"">0</Timestamp><DateUtc dt:dt=""string"">2016-12-22T07:24:38Z</DateUtc></StartTime><FrequencyChanges><FrequencyChange><Frequency dt:dt=""r8"">3579545</Frequency><Timestamp dt:dt=""r8"">80189032798</Timestamp><Current dt:dt=""r8"">0</Current><DateUtc dt:dt=""string"">2016-12-22T07:24:38Z</DateUtc></FrequencyChange></FrequencyChanges></Clock>\n",2016-12-22 15:24,84.838,1,-1414621576,12-22-2016,15:24:38,7:24:38,91,hud,8,8,90,,,,,,,0,,-999999,66,315192,1,1044,316236,,,,,,,,,aexppro111,block1,nv audio/hod.wav
nv,13,1,"<?xml version=""1.0""?>\n<Clock xmlns:dt=""urn:schemas-microsoft-com:datatypes""><Description dt:dt=""string"">E-Prime Primary Realtime Clock</Description><StartTime><Timestamp dt:dt=""int"">0</Timestamp><DateUtc dt:dt=""string"">2016-12-22T07:24:38Z</DateUtc></StartTime><FrequencyChanges><FrequencyChange><Frequency dt:dt=""r8"">3579545</Frequency><Timestamp dt:dt=""r8"">80189032798</Timestamp><Current dt:dt=""r8"">0</Current><DateUtc dt:dt=""string"">2016-12-22T07:24:38Z</DateUtc></FrequencyChange></FrequencyChanges></Clock>\n",2016-12-22 15:24,84.838,1,-1414621576,12-22-2016,15:24:38,7:24:38,92,hayed,7,8,91,,,,,,,0,,-999999,42,316783,1,2602,319385,,,,,,,,,aexppro111,block1,nv audio/hid.wav
nv,13,1,"<?xml version=""1.0""?>\n<Clock xmlns:dt=""urn:schemas-microsoft-com:datatypes""><Description dt:dt=""string"">E-Prime Primary Realtime Clock</Description><StartTime><Timestamp dt:dt=""int"">0</Timestamp><DateUtc dt:dt=""string"">2016-12-22T07:24:38Z</DateUtc></StartTime><FrequencyChanges><FrequencyChange><Frequency dt:dt=""r8"">3579545</Frequency><Timestamp dt:dt=""r8"">80189032798</Timestamp><Current dt:dt=""r8"">0</Current><DateUtc dt:dt=""string"">2016-12-22T07:24:38Z</DateUtc></FrequencyChange></FrequencyChanges></Clock>\n",2016-12-22 15:24,84.838,1,-1414621576,12-22-2016,15:24:38,7:24:38,93,head,4,8,92,,,,,,,0,,-999999,31,319919,1,1709,321628,,,,,,,,,aexppro111,block1,nv audio/head.wav
nv,13,1,"<?xml version=""1.0""?>\n<Clock xmlns:dt=""urn:schemas-microsoft-com:datatypes""><Description dt:dt=""string"">E-Prime Primary Realtime Clock</Description><StartTime><Timestamp dt:dt=""int"">0</Timestamp><DateUtc dt:dt=""string"">2016-12-22T07:24:38Z</DateUtc></StartTime><FrequencyChanges><FrequencyChange><Frequency dt:dt=""r8"">3579545</Frequency><Timestamp dt:dt=""r8"">80189032798</Timestamp><Current dt:dt=""r8"">0</Current><DateUtc dt:dt=""string"">2016-12-22T07:24:38Z</DateUtc></FrequencyChange></FrequencyChanges></Clock>\n",2016-12-22 15:24,84.838,1,-1414621576,12-22-2016,15:24:38,7:24:38,94,hoed,9,8,93,,,,,,,0,,-999999,54,322194,1,2808,325002,,,,,,,,,aexppro111,block1,nv audio/hoed.wav
nv,13,1,"<?xml version=""1.0""?>\n<Clock xmlns:dt=""urn:schemas-microsoft-com:datatypes""><Description dt:dt=""string"">E-Prime Primary Realtime Clock</Description><StartTime><Timestamp dt:dt=""int"">0</Timestamp><DateUtc dt:dt=""string"">2016-12-22T07:24:38Z</DateUtc></StartTime><FrequencyChanges><FrequencyChange><Frequency dt:dt=""r8"">3579545</Frequency><Timestamp dt:dt=""r8"">80189032798</Timestamp><Current dt:dt=""r8"">0</Current><DateUtc dt:dt=""string"">2016-12-22T07:24:38Z</DateUtc></FrequencyChange></FrequencyChanges></Clock>\n",2016-12-22 15:24,84.838,1,-1414621576,12-22-2016,15:24:38,7:24:38,95,hud,2,8,94,,,,,,,0,,-999999,42,325553,1,1053,326606,,,,,,,,,aexppro111,block1,nv audio/hawed.wav
nv,13,1,"<?xml version=""1.0""?>\n<Clock xmlns:dt=""urn:schemas-microsoft-com:datatypes""><Description dt:dt=""string"">E-Prime Primary Realtime Clock</Description><StartTime><Timestamp dt:dt=""int"">0</Timestamp><DateUtc dt:dt=""string"">2016-12-22T07:24:38Z</DateUtc></StartTime><FrequencyChanges><FrequencyChange><Frequency dt:dt=""r8"">3579545</Frequency><Timestamp dt:dt=""r8"">80189032798</Timestamp><Current dt:dt=""r8"">0</Current><DateUtc dt:dt=""string"">2016-12-22T07:24:38Z</DateUtc></FrequencyChange></FrequencyChanges></Clock>\n",2016-12-22 15:24,84.838,1,-1414621576,12-22-2016,15:24:38,7:24:38,96,head,1,8,95,,,,,,,0,,-999999,42,327156,1,2277,329433,,,,,,,,,aexppro111,block1,nv audio/had.wav
nv,13,1,"<?xml version=""1.0""?>\n<Clock xmlns:dt=""urn:schemas-microsoft-com:datatypes""><Description dt:dt=""string"">E-Prime Primary Realtime Clock</Description><StartTime><Timestamp dt:dt=""int"">0</Timestamp><DateUtc dt:dt=""string"">2016-12-22T07:24:38Z</DateUtc></StartTime><FrequencyChanges><FrequencyChange><Frequency dt:dt=""r8"">3579545</Frequency><Timestamp dt:dt=""r8"">80189032798</Timestamp><Current dt:dt=""r8"">0</Current><DateUtc dt:dt=""string"">2016-12-22T07:24:38Z</DateUtc></FrequencyChange></FrequencyChanges></Clock>\n",2016-12-22 15:24,84.838,1,-1414621576,12-22-2016,15:24:38,7:24:38,97,hoed,5,8,96,,,,,,,0,,-999999,42,329985,1,1152,331137,,,,,,,,,aexppro111,block1,nv audio/heard.wav
nv,13,1,"<?xml version=""1.0""?>\n<Clock xmlns:dt=""urn:schemas-microsoft-com:datatypes""><Description dt:dt=""string"">E-Prime Primary Realtime Clock</Description><StartTime><Timestamp dt:dt=""int"">0</Timestamp><DateUtc dt:dt=""string"">2016-12-22T07:24:38Z</DateUtc></StartTime><FrequencyChanges><FrequencyChange><Frequency dt:dt=""r8"">3579545</Frequency><Timestamp dt:dt=""r8"">80189032798</Timestamp><Current dt:dt=""r8"">0</Current><DateUtc dt:dt=""string"">2016-12-22T07:24:38Z</DateUtc></FrequencyChange></FrequencyChanges></Clock>\n",2016-12-22 15:24,84.838,1,-1414621576,12-22-2016,15:24:38,7:24:38,98,hood,12,9,97,,,,,,,0,,-999999,54,331694,1,1082,332776,,,,,,,,,aexppro111,block1,nv audio/whod.wav
nv,13,1,"<?xml version=""1.0""?>\n<Clock xmlns:dt=""urn:schemas-microsoft-com:datatypes""><Description dt:dt=""string"">E-Prime Primary Realtime Clock</Description><StartTime><Timestamp dt:dt=""int"">0</Timestamp><DateUtc dt:dt=""string"">2016-12-22T07:24:38Z</DateUtc></StartTime><FrequencyChanges><FrequencyChange><Frequency dt:dt=""r8"">3579545</Frequency><Timestamp dt:dt=""r8"">80189032798</Timestamp><Current dt:dt=""r8"">0</Current><DateUtc dt:dt=""string"">2016-12-22T07:24:38Z</DateUtc></FrequencyChange></FrequencyChanges></Clock>\n",2016-12-22 15:24,84.838,1,-1414621576,12-22-2016,15:24:38,7:24:38,99,head,11,9,98,,,,,,,0,,-999999,30,333309,1,1139,334448,,,,,,,,,aexppro111,block1,nv audio/hud.wav
nv,13,1,"<?xml version=""1.0""?>\n<Clock xmlns:dt=""urn:schemas-microsoft-com:datatypes""><Description dt:dt=""string"">E-Prime Primary Realtime Clock</Description><StartTime><Timestamp dt:dt=""int"">0</Timestamp><DateUtc dt:dt=""string"">2016-12-22T07:24:38Z</DateUtc></StartTime><FrequencyChanges><FrequencyChange><Frequency dt:dt=""r8"">3579545</Frequency><Timestamp dt:dt=""r8"">80189032798</Timestamp><Current dt:dt=""r8"">0</Current><DateUtc dt:dt=""string"">2016-12-22T07:24:38Z</DateUtc></FrequencyChange></FrequencyChanges></Clock>\n",2016-12-22 15:24,84.838,1,-1414621576,12-22-2016,15:24:38,7:24:38,100,hud,2,9,99,,,,,,,0,,-999999,66,335018,1,1574,336592,,,,,,,,,aexppro111,block1,nv audio/hawed.wav
nv,13,1,"<?xml version=""1.0""?>\n<Clock xmlns:dt=""urn:schemas-microsoft-com:datatypes""><Description dt:dt=""string"">E-Prime Primary Realtime Clock</Description><StartTime><Timestamp dt:dt=""int"">0</Timestamp><DateUtc dt:dt=""string"">2016-12-22T07:24:38Z</DateUtc></StartTime><FrequencyChanges><FrequencyChange><Frequency dt:dt=""r8"">3579545</Frequency><Timestamp dt:dt=""r8"">80189032798</Timestamp><Current dt:dt=""r8"">0</Current><DateUtc dt:dt=""string"">2016-12-22T07:24:38Z</DateUtc></FrequencyChange></FrequencyChanges></Clock>\n",2016-12-22 15:24,84.838,1,-1414621576,12-22-2016,15:24:38,7:24:38,101,hud,8,9,100,,,,,,,0,,-999999,78,337175,1,940,338115,,,,,,,,,aexppro111,block1,nv audio/hod.wav
nv,13,1,"<?xml version=""1.0""?>\n<Clock xmlns:dt=""urn:schemas-microsoft-com:datatypes""><Description dt:dt=""string"">E-Prime Primary Realtime Clock</Description><StartTime><Timestamp dt:dt=""int"">0</Timestamp><DateUtc dt:dt=""string"">2016-12-22T07:24:38Z</DateUtc></StartTime><FrequencyChanges><FrequencyChange><Frequency dt:dt=""r8"">3579545</Frequency><Timestamp dt:dt=""r8"">80189032798</Timestamp><Current dt:dt=""r8"">0</Current><DateUtc dt:dt=""string"">2016-12-22T07:24:38Z</DateUtc></FrequencyChange></FrequencyChanges></Clock>\n",2016-12-22 15:24,84.838,1,-1414621576,12-22-2016,15:24:38,7:24:38,102,hood,10,9,101,,,,,,,0,,-999999,42,338660,1,1785,340445,,,,,,,,,aexppro111,block1,nv audio/hood.wav
nv,13,1,"<?xml version=""1.0""?>\n<Clock xmlns:dt=""urn:schemas-microsoft-com:datatypes""><Description dt:dt=""string"">E-Prime Primary Realtime Clock</Description><StartTime><Timestamp dt:dt=""int"">0</Timestamp><DateUtc dt:dt=""string"">2016-12-22T07:24:38Z</DateUtc></StartTime><FrequencyChanges><FrequencyChange><Frequency dt:dt=""r8"">3579545</Frequency><Timestamp dt:dt=""r8"">80189032798</Timestamp><Current dt:dt=""r8"">0</Current><DateUtc dt:dt=""string"">2016-12-22T07:24:38Z</DateUtc></FrequencyChange></FrequencyChanges></Clock>\n",2016-12-22 15:24,84.838,1,-1414621576,12-22-2016,15:24:38,7:24:38,103,had,3,9,102,,,,,,,0,,-999999,54,341006,1,1868,342874,,,,,,,,,aexppro111,block1,nv audio/hayed.wav
nv,13,1,"<?xml version=""1.0""?>\n<Clock xmlns:dt=""urn:schemas-microsoft-com:datatypes""><Description dt:dt=""string"">E-Prime Primary Realtime Clock</Description><StartTime><Timestamp dt:dt=""int"">0</Timestamp><DateUtc dt:dt=""string"">2016-12-22T07:24:38Z</DateUtc></StartTime><FrequencyChanges><FrequencyChange><Frequency dt:dt=""r8"">3579545</Frequency><Timestamp dt:dt=""r8"">80189032798</Timestamp><Current dt:dt=""r8"">0</Current><DateUtc dt:dt=""string"">2016-12-22T07:24:38Z</DateUtc></FrequencyChange></FrequencyChanges></Clock>\n",2016-12-22 15:24,84.838,1,-1414621576,12-22-2016,15:24:38,7:24:38,104,hoed,5,9,103,,,,,,,0,,-999999,42,343422,1,2564,345986,,,,,,,,,aexppro111,block1,nv audio/heard.wav
nv,13,1,"<?xml version=""1.0""?>\n<Clock xmlns:dt=""urn:schemas-microsoft-com:datatypes""><Description dt:dt=""string"">E-Prime Primary Realtime Clock</Description><StartTime><Timestamp dt:dt=""int"">0</Timestamp><DateUtc dt:dt=""string"">2016-12-22T07:24:38Z</DateUtc></StartTime><FrequencyChanges><FrequencyChange><Frequency dt:dt=""r8"">3579545</Frequency><Timestamp dt:dt=""r8"">80189032798</Timestamp><Current dt:dt=""r8"">0</Current><DateUtc dt:dt=""string"">2016-12-22T07:24:38Z</DateUtc></FrequencyChange></FrequencyChanges></Clock>\n",2016-12-22 15:24,84.838,1,-1414621576,12-22-2016,15:24:38,7:24:38,105,head,1,9,104,,,,,,,0,,-999999,42,346534,1,1810,348344,,,,,,,,,aexppro111,block1,nv audio/had.wav
nv,13,1,"<?xml version=""1.0""?>\n<Clock xmlns:dt=""urn:schemas-microsoft-com:datatypes""><Description dt:dt=""string"">E-Prime Primary Realtime Clock</Description><StartTime><Timestamp dt:dt=""int"">0</Timestamp><DateUtc dt:dt=""string"">2016-12-22T07:24:38Z</DateUtc></StartTime><FrequencyChanges><FrequencyChange><Frequency dt:dt=""r8"">3579545</Frequency><Timestamp dt:dt=""r8"">80189032798</Timestamp><Current dt:dt=""r8"">0</Current><DateUtc dt:dt=""string"">2016-12-22T07:24:38Z</DateUtc></FrequencyChange></FrequencyChanges></Clock>\n",2016-12-22 15:24,84.838,1,-1414621576,12-22-2016,15:24:38,7:24:38,106,head,7,9,105,,,,,,,0,,-999999,42,348891,1,2583,351474,,,,,,,,,aexppro111,block1,nv audio/hid.wav
nv,13,1,"<?xml version=""1.0""?>\n<Clock xmlns:dt=""urn:schemas-microsoft-com:datatypes""><Description dt:dt=""string"">E-Prime Primary Realtime Clock</Description><StartTime><Timestamp dt:dt=""int"">0</Timestamp><DateUtc dt:dt=""string"">2016-12-22T07:24:38Z</DateUtc></StartTime><FrequencyChanges><FrequencyChange><Frequency dt:dt=""r8"">3579545</Frequency><Timestamp dt:dt=""r8"">80189032798</Timestamp><Current dt:dt=""r8"">0</Current><DateUtc dt:dt=""string"">2016-12-22T07:24:38Z</DateUtc></FrequencyChange></FrequencyChanges></Clock>\n",2016-12-22 15:24,84.838,1,-1414621576,12-22-2016,15:24:38,7:24:38,107,hoed,9,9,106,,,,,,,0,,-999999,65,352050,1,1942,353992,,,,,,,,,aexppro111,block1,nv audio/hoed.wav
nv,13,1,"<?xml version=""1.0""?>\n<Clock xmlns:dt=""urn:schemas-microsoft-com:datatypes""><Description dt:dt=""string"">E-Prime Primary Realtime Clock</Description><StartTime><Timestamp dt:dt=""int"">0</Timestamp><DateUtc dt:dt=""string"">2016-12-22T07:24:38Z</DateUtc></StartTime><FrequencyChanges><FrequencyChange><Frequency dt:dt=""r8"">3579545</Frequency><Timestamp dt:dt=""r8"">80189032798</Timestamp><Current dt:dt=""r8"">0</Current><DateUtc dt:dt=""string"">2016-12-22T07:24:38Z</DateUtc></FrequencyChange></FrequencyChanges></Clock>\n",2016-12-22 15:24,84.838,1,-1414621576,12-22-2016,15:24:38,7:24:38,108,head,4,9,107,,,,,,,0,,-999999,42,354537,1,1243,355780,,,,,,,,,aexppro111,block1,nv audio/head.wav
nv,13,1,"<?xml version=""1.0""?>\n<Clock xmlns:dt=""urn:schemas-microsoft-com:datatypes""><Description dt:dt=""string"">E-Prime Primary Realtime Clock</Description><StartTime><Timestamp dt:dt=""int"">0</Timestamp><DateUtc dt:dt=""string"">2016-12-22T07:24:38Z</DateUtc></StartTime><FrequencyChanges><FrequencyChange><Frequency dt:dt=""r8"">3579545</Frequency><Timestamp dt:dt=""r8"">80189032798</Timestamp><Current dt:dt=""r8"">0</Current><DateUtc dt:dt=""string"">2016-12-22T07:24:38Z</DateUtc></FrequencyChange></FrequencyChanges></Clock>\n",2016-12-22 15:24,84.838,1,-1414621576,12-22-2016,15:24:38,7:24:38,109,hayed,6,9,108,,,,,,,0,,-999999,42,356329,1,2764,359093,,,,,,,,,aexppro111,block1,nv audio/heed.wav
nv,13,1,"<?xml version=""1.0""?>\n<Clock xmlns:dt=""urn:schemas-microsoft-com:datatypes""><Description dt:dt=""string"">E-Prime Primary Realtime Clock</Description><StartTime><Timestamp dt:dt=""int"">0</Timestamp><DateUtc dt:dt=""string"">2016-12-22T07:24:38Z</DateUtc></StartTime><FrequencyChanges><FrequencyChange><Frequency dt:dt=""r8"">3579545</Frequency><Timestamp dt:dt=""r8"">80189032798</Timestamp><Current dt:dt=""r8"">0</Current><DateUtc dt:dt=""string"">2016-12-22T07:24:38Z</DateUtc></FrequencyChange></FrequencyChanges></Clock>\n",2016-12-22 15:24,84.838,1,-1414621576,12-22-2016,15:24:38,7:24:38,110,hayed,4,10,109,,,,,,,0,,-999999,42,359641,1,1312,360953,,,,,,,,,aexppro111,block1,nv audio/head.wav
nv,13,1,"<?xml version=""1.0""?>\n<Clock xmlns:dt=""urn:schemas-microsoft-com:datatypes""><Description dt:dt=""string"">E-Prime Primary Realtime Clock</Description><StartTime><Timestamp dt:dt=""int"">0</Timestamp><DateUtc dt:dt=""string"">2016-12-22T07:24:38Z</DateUtc></StartTime><FrequencyChanges><FrequencyChange><Frequency dt:dt=""r8"">3579545</Frequency><Timestamp dt:dt=""r8"">80189032798</Timestamp><Current dt:dt=""r8"">0</Current><DateUtc dt:dt=""string"">2016-12-22T07:24:38Z</DateUtc></FrequencyChange></FrequencyChanges></Clock>\n",2016-12-22 15:24,84.838,1,-1414621576,12-22-2016,15:24:38,7:24:38,111,hud,8,10,110,,,,,,,0,,-999999,43,361504,1,1111,362615,,,,,,,,,aexppro111,block1,nv audio/hod.wav
nv,13,1,"<?xml version=""1.0""?>\n<Clock xmlns:dt=""urn:schemas-microsoft-com:datatypes""><Description dt:dt=""string"">E-Prime Primary Realtime Clock</Description><StartTime><Timestamp dt:dt=""int"">0</Timestamp><DateUtc dt:dt=""string"">2016-12-22T07:24:38Z</DateUtc></StartTime><FrequencyChanges><FrequencyChange><Frequency dt:dt=""r8"">3579545</Frequency><Timestamp dt:dt=""r8"">80189032798</Timestamp><Current dt:dt=""r8"">0</Current><DateUtc dt:dt=""string"">2016-12-22T07:24:38Z</DateUtc></FrequencyChange></FrequencyChanges></Clock>\n",2016-12-22 15:24,84.838,1,-1414621576,12-22-2016,15:24:38,7:24:38,112,hood,10,10,111,,,,,,,0,,-999999,54,363177,1,1700,364877,,,,,,,,,aexppro111,block1,nv audio/hood.wav
nv,13,1,"<?xml version=""1.0""?>\n<Clock xmlns:dt=""urn:schemas-microsoft-com:datatypes""><Description dt:dt=""string"">E-Prime Primary Realtime Clock</Description><StartTime><Timestamp dt:dt=""int"">0</Timestamp><DateUtc dt:dt=""string"">2016-12-22T07:24:38Z</DateUtc></StartTime><FrequencyChanges><FrequencyChange><Frequency dt:dt=""r8"">3579545</Frequency><Timestamp dt:dt=""r8"">80189032798</Timestamp><Current dt:dt=""r8"">0</Current><DateUtc dt:dt=""string"">2016-12-22T07:24:38Z</DateUtc></FrequencyChange></FrequencyChanges></Clock>\n",2016-12-22 15:24,84.838,1,-1414621576,12-22-2016,15:24:38,7:24:38,113,hood,12,10,112,,,,,,,0,,-999999,54,365441,1,1135,366576,,,,,,,,,aexppro111,block1,nv audio/whod.wav
nv,13,1,"<?xml version=""1.0""?>\n<Clock xmlns:dt=""urn:schemas-microsoft-com:datatypes""><Description dt:dt=""string"">E-Prime Primary Realtime Clock</Description><StartTime><Timestamp dt:dt=""int"">0</Timestamp><DateUtc dt:dt=""string"">2016-12-22T07:24:38Z</DateUtc></StartTime><FrequencyChanges><FrequencyChange><Frequency dt:dt=""r8"">3579545</Frequency><Timestamp dt:dt=""r8"">80189032798</Timestamp><Current dt:dt=""r8"">0</Current><DateUtc dt:dt=""string"">2016-12-22T07:24:38Z</DateUtc></FrequencyChange></FrequencyChanges></Clock>\n",2016-12-22 15:24,84.838,1,-1414621576,12-22-2016,15:24:38,7:24:38,114,hayed,6,10,113,,,,,,,0,,-999999,42,367126,1,2622,369748,,,,,,,,,aexppro111,block1,nv audio/heed.wav
nv,13,1,"<?xml version=""1.0""?>\n<Clock xmlns:dt=""urn:schemas-microsoft-com:datatypes""><Description dt:dt=""string"">E-Prime Primary Realtime Clock</Description><StartTime><Timestamp dt:dt=""int"">0</Timestamp><DateUtc dt:dt=""string"">2016-12-22T07:24:38Z</DateUtc></StartTime><FrequencyChanges><FrequencyChange><Frequency dt:dt=""r8"">3579545</Frequency><Timestamp dt:dt=""r8"">80189032798</Timestamp><Current dt:dt=""r8"">0</Current><DateUtc dt:dt=""string"">2016-12-22T07:24:38Z</DateUtc></FrequencyChange></FrequencyChanges></Clock>\n",2016-12-22 15:24,84.838,1,-1414621576,12-22-2016,15:24:38,7:24:38,115,hayed,7,10,114,,,,,,,0,,-999999,42,370297,1,3129,373426,,,,,,,,,aexppro111,block1,nv audio/hid.wav
