ExperimentName,Subject,Session,Clock.Information,Clock.StartTimeOfDay,Display.RefreshRate,Group,RandomSeed,SessionDate,SessionTime,SessionTimeUtc,Block,answer1[Block],block1,block1.Cycle,block1.Sample,block2,block2.Cycle,block2.Sample,lx,lx.Cycle,lx.Sample,panel1111.ACC,panel1111.CRESP,panel1111.DurationError,panel1111.OnsetDelay,panel1111.OnsetTime,panel1111.RESP,panel1111.RT,panel1111.RTTime,panel1121.ACC,panel1121.CRESP,panel1121.DurationError,panel1121.OnsetDelay,panel1121.OnsetTime,panel1121.RESP,panel1121.RT,panel1121.RTTime,Procedure[Block],Running[Block],sound111,sound112,Trial,answer1[Trial],lxlist,lxlist.Cycle,lxlist.Sample,lxpanel1.ACC,lxpanel1.CRESP,lxpanel1.DurationError,lxpanel1.OnsetDelay,lxpanel1.OnsetTime,lxpanel1.RESP,lxpanel1.RT,lxpanel1.RTTime,lxsound,Procedure[Trial],Running[Trial]
nv,14,1,"<?xml version=""1.0""?>\n<Clock xmlns:dt=""urn:schemas-microsoft-com:datatypes""><Description dt:dt=""string"">E-Prime Primary Realtime Clock</Description><StartTime><Timestamp dt:dt=""int"">0</Timestamp><DateUtc dt:dt=""string"">2016-12-22T08:12:29Z</DateUtc></StartTime><FrequencyChanges><FrequencyChange><Frequency dt:dt=""r8"">3579545</Frequency><Timestamp dt:dt=""r8"">16446376886</Timestamp><Current dt:dt=""r8"">0</Current><DateUtc dt:dt=""string"">2016-12-22T08:12:29Z</DateUtc></FrequencyChange></FrequencyChanges></Clock>\n",2016-12-22 16:12,74.894,1,-732777191,12-22-2016,16:12:29,8:12:29,1,,,,,,,,1,1,1,,,,,,,,,,,,,,,,,lxProc,lx,,,1,lxhad,3,1,1,0,,-999999,78,38493,1,2611,41104,nv audio/hayed.wav,lxpro1,lxlist
nv,14,1,"<?xml version=""1.0""?>\n<Clock xmlns:dt=""urn:schemas-microsoft-com:datatypes""><Description dt:dt=""string"">E-Prime Primary Realtime Clock</Description><StartTime><Timestamp dt:dt=""int"">0</Timestamp><DateUtc dt:dt=""string"">2016-12-22T08:12:29Z</DateUtc></StartTime><FrequencyChanges><FrequencyChange><Frequency dt:dt=""r8"">3579545</Frequency><Timestamp dt:dt=""r8"">16446376886</Timestamp><Current dt:dt=""r8"">0</Current><DateUtc dt:dt=""string"">2016-12-22T08:12:29Z</DateUtc></FrequencyChange></FrequencyChanges></Clock>\n",2016-12-22 16:12,74.894,1,-732777191,12-22-2016,16:12:29,8:12:29,1,,,,,,,,1,1,1,,,,,,,,,,,,,,,,,lxProc,lx,,,2,lxheard,5,1,2,0,,-999999,47,41657,1,1641,43298,nv audio/heard.wav,lxpro1,lxlist
nv,14,1,"<?xml version=""1.0""?>\n<Clock xmlns:dt=""urn:schemas-microsoft-com:datatypes""><Description dt:dt=""string"">E-Prime Primary Realtime Clock</Description><StartTime><Timestamp dt:dt=""int"">0</Timestamp><DateUtc dt:dt=""string"">2016-12-22T08:12:29Z</DateUtc></StartTime><FrequencyChanges><FrequencyChange><Frequency dt:dt=""r8"">3579545</Frequency><Timestamp dt:dt=""r8"">16446376886</Timestamp><Current dt:dt=""r8"">0</Current><DateUtc dt:dt=""string"">2016-12-22T08:12:29Z</DateUtc></FrequencyChange></FrequencyChanges></Clock>\n",2016-12-22 16:12,74.894,1,-732777191,12-22-2016,16:12:29,8:12:29,1,,,,,,,,1,1,1,,,,,,,,,,,,,,,,,lxProc,lx,,,3,lxhoed,8,1,3,0,,-999999,47,43847,1,4194,48041,nv audio/hod.wav,lxpro1,lxlist
nv,14,1,"<?xml version=""1.0""?>\n<Clock xmlns:dt=""urn:schemas-microsoft-com:datatypes""><Description dt:dt=""string"">E-Prime Primary Realtime Clock</Description><StartTime><Timestamp dt:dt=""int"">0</Timestamp><DateUtc dt:dt=""string"">2016-12-22T08:12:29Z</DateUtc></StartTime><FrequencyChanges><FrequencyChange><Frequency dt:dt=""r8"">3579545</Frequency><Timestamp dt:dt=""r8"">16446376886</Timestamp><Current dt:dt=""r8"">0</Current><DateUtc dt:dt=""string"">2016-12-22T08:12:29Z</DateUtc></FrequencyChange></FrequencyChanges></Clock>\n",2016-12-22 16:12,74.894,1,-732777191,12-22-2016,16:12:29,8:12:29,1,,,,,,,,1,1,1,,,,,,,,,,,,,,,,,lxProc,lx,,,4,lxhayed,7,1,4,0,,-999999,61,48614,1,2237,50851,nv audio/hid.wav,lxpro1,lxlist
nv,14,1,"<?xml version=""1.0""?>\n<Clock xmlns:dt=""urn:schemas-microsoft-com:datatypes""><Description dt:dt=""string"">E-Prime Primary Realtime Clock</Description><StartTime><Timestamp dt:dt=""int"">0</Timestamp><DateUtc dt:dt=""string"">2016-12-22T08:12:29Z</DateUtc></StartTime><FrequencyChanges><FrequencyChange><Frequency dt:dt=""r8"">3579545</Frequency><Timestamp dt:dt=""r8"">16446376886</Timestamp><Current dt:dt=""r8"">0</Current><DateUtc dt:dt=""string"">2016-12-22T08:12:29Z</DateUtc></FrequencyChange></FrequencyChanges></Clock>\n",2016-12-22 16:12,74.894,1,-732777191,12-22-2016,16:12:29,8:12:29,1,,,,,,,,1,1,1,,,,,,,,,,,,,,,,,lxProc,lx,,,5,lxhayed,1,1,5,0,,-999999,48,51405,1,1941,53346,nv audio/had.wav,lxpro1,lxlist
nv,14,1,"<?xml version=""1.0""?>\n<Clock xmlns:dt=""urn:schemas-microsoft-com:datatypes""><Description dt:dt=""string"">E-Prime Primary Realtime Clock</Description><StartTime><Timestamp dt:dt=""int"">0</Timestamp><DateUtc dt:dt=""string"">2016-12-22T08:12:29Z</DateUtc></StartTime><FrequencyChanges><FrequencyChange><Frequency dt:dt=""r8"">3579545</Frequency><Timestamp dt:dt=""r8"">16446376886</Timestamp><Current dt:dt=""r8"">0</Current><DateUtc dt:dt=""string"">2016-12-22T08:12:29Z</DateUtc></FrequencyChange></FrequencyChanges></Clock>\n",2016-12-22 16:12,74.894,1,-732777191,12-22-2016,16:12:29,8:12:29,1,,,,,,,,1,1,1,,,,,,,,,,,,,,,,,lxProc,lx,,,6,lxhoed,2,1,6,0,,-999999,21,53875,1,3392,57267,nv audio/hawed.wav,lxpro1,lxlist
nv,14,1,"<?xml version=""1.0""?>\n<Clock xmlns:dt=""urn:schemas-microsoft-com:datatypes""><Description dt:dt=""string"">E-Prime Primary Realtime Clock</Description><StartTime><Timestamp dt:dt=""int"">0</Timestamp><DateUtc dt:dt=""string"">2016-12-22T08:12:29Z</DateUtc></StartTime><FrequencyChanges><FrequencyChange><Frequency dt:dt=""r8"">3579545</Frequency><Timestamp dt:dt=""r8"">16446376886</Timestamp><Current dt:dt=""r8"">0</Current><DateUtc dt:dt=""string"">2016-12-22T08:12:29Z</DateUtc></FrequencyChange></FrequencyChanges></Clock>\n",2016-12-22 16:12,74.894,1,-732777191,12-22-2016,16:12:29,8:12:29,1,,,,,,,,1,1,1,,,,,,,,,,,,,,,,,lxProc,lx,,,7,lxhawed,9,1,7,0,,-999999,21,57800,1,3674,61474,nv audio/hoed.wav,lxpro1,lxlist
nv,14,1,"<?xml version=""1.0""?>\n<Clock xmlns:dt=""urn:schemas-microsoft-com:datatypes""><Description dt:dt=""string"">E-Prime Primary Realtime Clock</Description><StartTime><Timestamp dt:dt=""int"">0</Timestamp><DateUtc dt:dt=""string"">2016-12-22T08:12:29Z</DateUtc></StartTime><FrequencyChanges><FrequencyChange><Frequency dt:dt=""r8"">3579545</Frequency><Timestamp dt:dt=""r8"">16446376886</Timestamp><Current dt:dt=""r8"">0</Current><DateUtc dt:dt=""string"">2016-12-22T08:12:29Z</DateUtc></FrequencyChange></FrequencyChanges></Clock>\n",2016-12-22 16:12,74.894,1,-732777191,12-22-2016,16:12:29,8:12:29,1,,,,,,,,1,1,1,,,,,,,,,,,,,,,,,lxProc,lx,,,8,lxhayed,4,1,8,0,,-999999,21,62006,1,961,62967,nv audio/head.wav,lxpro1,lxlist
nv,14,1,"<?xml version=""1.0""?>\n<Clock xmlns:dt=""urn:schemas-microsoft-com:datatypes""><Description dt:dt=""string"">E-Prime Primary Realtime Clock</Description><StartTime><Timestamp dt:dt=""int"">0</Timestamp><DateUtc dt:dt=""string"">2016-12-22T08:12:29Z</DateUtc></StartTime><FrequencyChanges><FrequencyChange><Frequency dt:dt=""r8"">3579545</Frequency><Timestamp dt:dt=""r8"">16446376886</Timestamp><Current dt:dt=""r8"">0</Current><DateUtc dt:dt=""string"">2016-12-22T08:12:29Z</DateUtc></FrequencyChange></FrequencyChanges></Clock>\n",2016-12-22 16:12,74.894,1,-732777191,12-22-2016,16:12:29,8:12:29,1,,,,,,,,1,1,1,,,,,,,,,,,,,,,,,lxProc,lx,,,9,lxhead,6,1,9,0,,-999999,20,63501,1,935,64436,nv audio/heed.wav,lxpro1,lxlist
nv,14,1,"<?xml version=""1.0""?>\n<Clock xmlns:dt=""urn:schemas-microsoft-com:datatypes""><Description dt:dt=""string"">E-Prime Primary Realtime Clock</Description><StartTime><Timestamp dt:dt=""int"">0</Timestamp><DateUtc dt:dt=""string"">2016-12-22T08:12:29Z</DateUtc></StartTime><FrequencyChanges><FrequencyChange><Frequency dt:dt=""r8"">3579545</Frequency><Timestamp dt:dt=""r8"">16446376886</Timestamp><Current dt:dt=""r8"">0</Current><DateUtc dt:dt=""string"">2016-12-22T08:12:29Z</DateUtc></FrequencyChange></FrequencyChanges></Clock>\n",2016-12-22 16:12,74.894,1,-732777191,12-22-2016,16:12:29,8:12:29,1,,,,,,,,1,1,1,,,,,,,,,,,,,,,,,lxProc,lx,,,10,lxwhod,12,1,10,0,,-999999,21,64970,1,4065,69035,nv audio/whod.wav,lxpro1,lxlist
nv,14,1,"<?xml version=""1.0""?>\n<Clock xmlns:dt=""urn:schemas-microsoft-com:datatypes""><Description dt:dt=""string"">E-Prime Primary Realtime Clock</Description><StartTime><Timestamp dt:dt=""int"">0</Timestamp><DateUtc dt:dt=""string"">2016-12-22T08:12:29Z</DateUtc></StartTime><FrequencyChanges><FrequencyChange><Frequency dt:dt=""r8"">3579545</Frequency><Timestamp dt:dt=""r8"">16446376886</Timestamp><Current dt:dt=""r8"">0</Current><DateUtc dt:dt=""string"">2016-12-22T08:12:29Z</DateUtc></FrequencyChange></FrequencyChanges></Clock>\n",2016-12-22 16:12,74.894,1,-732777191,12-22-2016,16:12:29,8:12:29,1,,,,,,,,1,1,1,,,,,,,,,,,,,,,,,lxProc,lx,,,11,lxhud,11,1,11,0,,-999999,20,69563,1,2145,71708,nv audio/hud.wav,lxpro1,lxlist
nv,14,1,"<?xml version=""1.0""?>\n<Clock xmlns:dt=""urn:schemas-microsoft-com:datatypes""><Description dt:dt=""string"">E-Prime Primary Realtime Clock</Description><StartTime><Timestamp dt:dt=""int"">0</Timestamp><DateUtc dt:dt=""string"">2016-12-22T08:12:29Z</DateUtc></StartTime><FrequencyChanges><FrequencyChange><Frequency dt:dt=""r8"">3579545</Frequency><Timestamp dt:dt=""r8"">16446376886</Timestamp><Current dt:dt=""r8"">0</Current><DateUtc dt:dt=""string"">2016-12-22T08:12:29Z</DateUtc></FrequencyChange></FrequencyChanges></Clock>\n",2016-12-22 16:12,74.894,1,-732777191,12-22-2016,16:12:29,8:12:29,1,,,,,,,,1,1,1,,,,,,,,,,,,,,,,,lxProc,lx,,,12,lxhawed,10,1,12,0,,-999999,21,72234,1,3317,75551,nv audio/hood.wav,lxpro1,lxlist
nv,14,1,"<?xml version=""1.0""?>\n<Clock xmlns:dt=""urn:schemas-microsoft-com:datatypes""><Description dt:dt=""string"">E-Prime Primary Realtime Clock</Description><StartTime><Timestamp dt:dt=""int"">0</Timestamp><DateUtc dt:dt=""string"">2016-12-22T08:12:29Z</DateUtc></StartTime><FrequencyChanges><FrequencyChange><Frequency dt:dt=""r8"">3579545</Frequency><Timestamp dt:dt=""r8"">16446376886</Timestamp><Current dt:dt=""r8"">0</Current><DateUtc dt:dt=""string"">2016-12-22T08:12:29Z</DateUtc></FrequencyChange></FrequencyChanges></Clock>\n",2016-12-22 16:12,74.894,1,-732777191,12-22-2016,16:12:29,8:12:29,1,,,,,,,,1,1,1,,,,,,,,,,,,,,,,,lxProc,lx,,,13,lxhod,9,2,13,0,,-999999,21,76079,1,4780,80859,nv audio/hoed.wav,lxpro1,lxlist
nv,14,1,"<?xml version=""1.0""?>\n<Clock xmlns:dt=""urn:schemas-microsoft-com:datatypes""><Description dt:dt=""string"">E-Prime Primary Realtime Clock</Description><StartTime><Timestamp dt:dt=""int"">0</Timestamp><DateUtc dt:dt=""string"">2016-12-22T08:12:29Z</DateUtc></StartTime><FrequencyChanges><FrequencyChange><Frequency dt:dt=""r8"">3579545</Frequency><Timestamp dt:dt=""r8"">16446376886</Timestamp><Current dt:dt=""r8"">0</Current><DateUtc dt:dt=""string"">2016-12-22T08:12:29Z</DateUtc></FrequencyChange></FrequencyChanges></Clock>\n",2016-12-22 16:12,74.894,1,-732777191,12-22-2016,16:12:29,8:12:29,1,,,,,,,,1,1,1,,,,,,,,,,,,,,,,,lxProc,lx,,,14,lxhid,4,2,14,0,,-999999,20,81393,1,2660,84053,nv audio/head.wav,lxpro1,lxlist
nv,14,1,"<?xml version=""1.0""?>\n<Clock xmlns:dt=""urn:schemas-microsoft-com:datatypes""><Description dt:dt=""string"">E-Prime Primary Realtime Clock</Description><StartTime><Timestamp dt:dt=""int"">0</Timestamp><DateUtc dt:dt=""string"">2016-12-22T08:12:29Z</DateUtc></StartTime><FrequencyChanges><FrequencyChange><Frequency dt:dt=""r8"">3579545</Frequency><Timestamp dt:dt=""r8"">16446376886</Timestamp><Current dt:dt=""r8"">0</Current><DateUtc dt:dt=""string"">2016-12-22T08:12:29Z</DateUtc></FrequencyChange></FrequencyChanges></Clock>\n",2016-12-22 16:12,74.894,1,-732777191,12-22-2016,16:12:29,8:12:29,1,,,,,,,,1,1,1,,,,,,,,,,,,,,,,,lxProc,lx,,,15,lxheed,11,2,15,0,,-999999,20,84584,1,3043,87627,nv audio/hud.wav,lxpro1,lxlist
nv,14,1,"<?xml version=""1.0""?>\n<Clock xmlns:dt=""urn:schemas-microsoft-com:datatypes""><Description dt:dt=""string"">E-Prime Primary Realtime Clock</Description><StartTime><Timestamp dt:dt=""int"">0</Timestamp><DateUtc dt:dt=""string"">2016-12-22T08:12:29Z</DateUtc></StartTime><FrequencyChanges><FrequencyChange><Frequency dt:dt=""r8"">3579545</Frequency><Timestamp dt:dt=""r8"">16446376886</Timestamp><Current dt:dt=""r8"">0</Current><DateUtc dt:dt=""string"">2016-12-22T08:12:29Z</DateUtc></FrequencyChange></FrequencyChanges></Clock>\n",2016-12-22 16:12,74.894,1,-732777191,12-22-2016,16:12:29,8:12:29,1,,,,,,,,1,1,1,,,,,,,,,,,,,,,,,lxProc,lx,,,16,,6,2,16,1,,0,34,88163,,0,0,nv audio/heed.wav,lxpro1,lxlist
nv,14,1,"<?xml version=""1.0""?>\n<Clock xmlns:dt=""urn:schemas-microsoft-com:datatypes""><Description dt:dt=""string"">E-Prime Primary Realtime Clock</Description><StartTime><Timestamp dt:dt=""int"">0</Timestamp><DateUtc dt:dt=""string"">2016-12-22T08:12:29Z</DateUtc></StartTime><FrequencyChanges><FrequencyChange><Frequency dt:dt=""r8"">3579545</Frequency><Timestamp dt:dt=""r8"">16446376886</Timestamp><Current dt:dt=""r8"">0</Current><DateUtc dt:dt=""string"">2016-12-22T08:12:29Z</DateUtc></FrequencyChange></FrequencyChanges></Clock>\n",2016-12-22 16:12,74.894,1,-732777191,12-22-2016,16:12:29,8:12:29,1,,,,,,,,1,1,1,,,,,,,,,,,,,,,,,lxProc,lx,,,17,lxhad,2,2,17,0,,-999999,21,94692,1,3500,98192,nv audio/hawed.wav,lxpro1,lxlist
nv,14,1,"<?xml version=""1.0""?>\n<Clock xmlns:dt=""urn:schemas-microsoft-com:datatypes""><Description dt:dt=""string"">E-Prime Primary Realtime Clock</Description><StartTime><Timestamp dt:dt=""int"">0</Timestamp><DateUtc dt:dt=""string"">2016-12-22T08:12:29Z</DateUtc></StartTime><FrequencyChanges><FrequencyChange><Frequency dt:dt=""r8"">3579545</Frequency><Timestamp dt:dt=""r8"">16446376886</Timestamp><Current dt:dt=""r8"">0</Current><DateUtc dt:dt=""string"">2016-12-22T08:12:29Z</DateUtc></FrequencyChange></FrequencyChanges></Clock>\n",2016-12-22 16:12,74.894,1,-732777191,12-22-2016,16:12:29,8:12:29,1,,,,,,,,1,1,1,,,,,,,,,,,,,,,,,lxProc,lx,,,18,lxhid,7,2,18,0,,-999999,20,98724,1,3071,101795,nv audio/hid.wav,lxpro1,lxlist
nv,14,1,"<?xml version=""1.0""?>\n<Clock xmlns:dt=""urn:schemas-microsoft-com:datatypes""><Description dt:dt=""string"">E-Prime Primary Realtime Clock</Description><StartTime><Timestamp dt:dt=""int"">0</Timestamp><DateUtc dt:dt=""string"">2016-12-22T08:12:29Z</DateUtc></StartTime><FrequencyChanges><FrequencyChange><Frequency dt:dt=""r8"">3579545</Frequency><Timestamp dt:dt=""r8"">16446376886</Timestamp><Current dt:dt=""r8"">0</Current><DateUtc dt:dt=""string"">2016-12-22T08:12:29Z</DateUtc></FrequencyChange></FrequencyChanges></Clock>\n",2016-12-22 16:12,74.894,1,-732777191,12-22-2016,16:12:29,8:12:29,1,,,,,,,,1,1,1,,,,,,,,,,,,,,,,,lxProc,lx,,,19,lxhid,1,2,19,0,,-999999,34,102343,1,1219,103562,nv audio/had.wav,lxpro1,lxlist
nv,14,1,"<?xml version=""1.0""?>\n<Clock xmlns:dt=""urn:schemas-microsoft-com:datatypes""><Description dt:dt=""string"">E-Prime Primary Realtime Clock</Description><StartTime><Timestamp dt:dt=""int"">0</Timestamp><DateUtc dt:dt=""string"">2016-12-22T08:12:29Z</DateUtc></StartTime><FrequencyChanges><FrequencyChange><Frequency dt:dt=""r8"">3579545</Frequency><Timestamp dt:dt=""r8"">16446376886</Timestamp><Current dt:dt=""r8"">0</Current><DateUtc dt:dt=""string"">2016-12-22T08:12:29Z</DateUtc></FrequencyChange></FrequencyChanges></Clock>\n",2016-12-22 16:12,74.894,1,-732777191,12-22-2016,16:12:29,8:12:29,1,,,,,,,,1,1,1,,,,,,,,,,,,,,,,,lxProc,lx,,,20,lxhayed,3,2,20,0,,-999999,21,104092,1,4649,108741,nv audio/hayed.wav,lxpro1,lxlist
nv,14,1,"<?xml version=""1.0""?>\n<Clock xmlns:dt=""urn:schemas-microsoft-com:datatypes""><Description dt:dt=""string"">E-Prime Primary Realtime Clock</Description><StartTime><Timestamp dt:dt=""int"">0</Timestamp><DateUtc dt:dt=""string"">2016-12-22T08:12:29Z</DateUtc></StartTime><FrequencyChanges><FrequencyChange><Frequency dt:dt=""r8"">3579545</Frequency><Timestamp dt:dt=""r8"">16446376886</Timestamp><Current dt:dt=""r8"">0</Current><DateUtc dt:dt=""string"">2016-12-22T08:12:29Z</DateUtc></FrequencyChange></FrequencyChanges></Clock>\n",2016-12-22 16:12,74.894,1,-732777191,12-22-2016,16:12:29,8:12:29,1,,,,,,,,1,1,1,,,,,,,,,,,,,,,,,lxProc,lx,,,21,,5,2,21,0,,-999999,34,109286,1,951,110237,nv audio/heard.wav,lxpro1,lxlist
nv,14,1,"<?xml version=""1.0""?>\n<Clock xmlns:dt=""urn:schemas-microsoft-com:datatypes""><Description dt:dt=""string"">E-Prime Primary Realtime Clock</Description><StartTime><Timestamp dt:dt=""int"">0</Timestamp><DateUtc dt:dt=""string"">2016-12-22T08:12:29Z</DateUtc></StartTime><FrequencyChanges><FrequencyChange><Frequency dt:dt=""r8"">3579545</Frequency><Timestamp dt:dt=""r8"">16446376886</Timestamp><Current dt:dt=""r8"">0</Current><DateUtc dt:dt=""string"">2016-12-22T08:12:29Z</DateUtc></FrequencyChange></FrequencyChanges></Clock>\n",2016-12-22 16:12,74.894,1,-732777191,12-22-2016,16:12:29,8:12:29,1,,,,,,,,1,1,1,,,,,,,,,,,,,,,,,lxProc,lx,,,22,lxhood,12,2,22,0,,-999999,20,111769,1,3334,115103,nv audio/whod.wav,lxpro1,lxlist
nv,14,1,"<?xml version=""1.0""?>\n<Clock xmlns:dt=""urn:schemas-microsoft-com:datatypes""><Description dt:dt=""string"">E-Prime Primary Realtime Clock</Description><StartTime><Timestamp dt:dt=""int"">0</Timestamp><DateUtc dt:dt=""string"">2016-12-22T08:12:29Z</DateUtc></StartTime><FrequencyChanges><FrequencyChange><Frequency dt:dt=""r8"">3579545</Frequency><Timestamp dt:dt=""r8"">16446376886</Timestamp><Current dt:dt=""r8"">0</Current><DateUtc dt:dt=""string"">2016-12-22T08:12:29Z</DateUtc></FrequencyChange></FrequencyChanges></Clock>\n",2016-12-22 16:12,74.894,1,-732777191,12-22-2016,16:12:29,8:12:29,1,,,,,,,,1,1,1,,,,,,,,,,,,,,,,,lxProc,lx,,,23,lxhud,10,2,23,0,,-999999,21,115628,1,1663,117291,nv audio/hood.wav,lxpro1,lxlist
nv,14,1,"<?xml version=""1.0""?>\n<Clock xmlns:dt=""urn:schemas-microsoft-com:datatypes""><Description dt:dt=""string"">E-Prime Primary Realtime Clock</Description><StartTime><Timestamp dt:dt=""int"">0</Timestamp><DateUtc dt:dt=""string"">2016-12-22T08:12:29Z</DateUtc></StartTime><FrequencyChanges><FrequencyChange><Frequency dt:dt=""r8"">3579545</Frequency><Timestamp dt:dt=""r8"">16446376886</Timestamp><Current dt:dt=""r8"">0</Current><DateUtc dt:dt=""string"">2016-12-22T08:12:29Z</DateUtc></FrequencyChange></FrequencyChanges></Clock>\n",2016-12-22 16:12,74.894,1,-732777191,12-22-2016,16:12:29,8:12:29,1,,,,,,,,1,1,1,,,,,,,,,,,,,,,,,lxProc,lx,,,24,lxhod,8,2,24,0,,-999999,21,117818,1,2603,120421,nv audio/hod.wav,lxpro1,lxlist
nv,14,1,"<?xml version=""1.0""?>\n<Clock xmlns:dt=""urn:schemas-microsoft-com:datatypes""><Description dt:dt=""string"">E-Prime Primary Realtime Clock</Description><StartTime><Timestamp dt:dt=""int"">0</Timestamp><DateUtc dt:dt=""string"">2016-12-22T08:12:29Z</DateUtc></StartTime><FrequencyChanges><FrequencyChange><Frequency dt:dt=""r8"">3579545</Frequency><Timestamp dt:dt=""r8"">16446376886</Timestamp><Current dt:dt=""r8"">0</Current><DateUtc dt:dt=""string"">2016-12-22T08:12:29Z</DateUtc></FrequencyChange></FrequencyChanges></Clock>\n",2016-12-22 16:12,74.894,1,-732777191,12-22-2016,16:12:29,8:12:29,2,had,3,1,1,,,,,,,0,,-999999,15,122785,1,1944,124729,,,,,,,,,aexppro111,block1,nv audio/hayed.wav,,,,,,,,,,,,,,,,,
nv,14,1,"<?xml version=""1.0""?>\n<Clock xmlns:dt=""urn:schemas-microsoft-com:datatypes""><Description dt:dt=""string"">E-Prime Primary Realtime Clock</Description><StartTime><Timestamp dt:dt=""int"">0</Timestamp><DateUtc dt:dt=""string"">2016-12-22T08:12:29Z</DateUtc></StartTime><FrequencyChanges><FrequencyChange><Frequency dt:dt=""r8"">3579545</Frequency><Timestamp dt:dt=""r8"">16446376886</Timestamp><Current dt:dt=""r8"">0</Current><DateUtc dt:dt=""string"">2016-12-22T08:12:29Z</DateUtc></FrequencyChange></FrequencyChanges></Clock>\n",2016-12-22 16:12,74.894,1,-732777191,12-22-2016,16:12:29,8:12:29,3,hid,1,1,2,,,,,,,0,,-999999,21,125255,1,1757,127012,,,,,,,,,aexppro111,block1,nv audio/had.wav,,,,,,,,,,,,,,,,,
nv,14,1,"<?xml version=""1.0""?>\n<Clock xmlns:dt=""urn:schemas-microsoft-com:datatypes""><Description dt:dt=""string"">E-Prime Primary Realtime Clock</Description><StartTime><Timestamp dt:dt=""int"">0</Timestamp><DateUtc dt:dt=""string"">2016-12-22T08:12:29Z</DateUtc></StartTime><FrequencyChanges><FrequencyChange><Frequency dt:dt=""r8"">3579545</Frequency><Timestamp dt:dt=""r8"">16446376886</Timestamp><Current dt:dt=""r8"">0</Current><DateUtc dt:dt=""string"">2016-12-22T08:12:29Z</DateUtc></FrequencyChange></FrequencyChanges></Clock>\n",2016-12-22 16:12,74.894,1,-732777191,12-22-2016,16:12:29,8:12:29,4,hawed,8,1,3,,,,,,,0,,-999999,20,127538,1,2839,130377,,,,,,,,,aexppro111,block1,nv audio/hod.wav,,,,,,,,,,,,,,,,,
nv,14,1,"<?xml version=""1.0""?>\n<Clock xmlns:dt=""urn:schemas-microsoft-com:datatypes""><Description dt:dt=""string"">E-Prime Primary Realtime Clock</Description><StartTime><Timestamp dt:dt=""int"">0</Timestamp><DateUtc dt:dt=""string"">2016-12-22T08:12:29Z</DateUtc></StartTime><FrequencyChanges><FrequencyChange><Frequency dt:dt=""r8"">3579545</Frequency><Timestamp dt:dt=""r8"">16446376886</Timestamp><Current dt:dt=""r8"">0</Current><DateUtc dt:dt=""string"">2016-12-22T08:12:29Z</DateUtc></FrequencyChange></FrequencyChanges></Clock>\n",2016-12-22 16:12,74.894,1,-732777191,12-22-2016,16:12:29,8:12:29,5,hood,10,1,4,,,,,,,0,,-999999,34,130916,1,1600,132516,,,,,,,,,aexppro111,block1,nv audio/hood.wav,,,,,,,,,,,,,,,,,
nv,14,1,"<?xml version=""1.0""?>\n<Clock xmlns:dt=""urn:schemas-microsoft-com:datatypes""><Description dt:dt=""string"">E-Prime Primary Realtime Clock</Description><StartTime><Timestamp dt:dt=""int"">0</Timestamp><DateUtc dt:dt=""string"">2016-12-22T08:12:29Z</DateUtc></StartTime><FrequencyChanges><FrequencyChange><Frequency dt:dt=""r8"">3579545</Frequency><Timestamp dt:dt=""r8"">16446376886</Timestamp><Current dt:dt=""r8"">0</Current><DateUtc dt:dt=""string"">2016-12-22T08:12:29Z</DateUtc></FrequencyChange></FrequencyChanges></Clock>\n",2016-12-22 16:12,74.894,1,-732777191,12-22-2016,16:12:29,8:12:29,6,hud,4,1,5,,,,,,,0,,-999999,20,133039,1,3726,136765,,,,,,,,,aexppro111,block1,nv audio/head.wav,,,,,,,,,,,,,,,,,
nv,14,1,"<?xml version=""1.0""?>\n<Clock xmlns:dt=""urn:schemas-microsoft-com:datatypes""><Description dt:dt=""string"">E-Prime Primary Realtime Clock</Description><StartTime><Timestamp dt:dt=""int"">0</Timestamp><DateUtc dt:dt=""string"">2016-12-22T08:12:29Z</DateUtc></StartTime><FrequencyChanges><FrequencyChange><Frequency dt:dt=""r8"">3579545</Frequency><Timestamp dt:dt=""r8"">16446376886</Timestamp><Current dt:dt=""r8"">0</Current><DateUtc dt:dt=""string"">2016-12-22T08:12:29Z</DateUtc></FrequencyChange></FrequencyChanges></Clock>\n",2016-12-22 16:12,74.894,1,-732777191,12-22-2016,16:12:29,8:12:29,7,heed,6,1,6,,,,,,,0,,-999999,21,137299,1,1381,138680,,,,,,,,,aexppro111,block1,nv audio/heed.wav,,,,,,,,,,,,,,,,,
nv,14,1,"<?xml version=""1.0""?>\n<Clock xmlns:dt=""urn:schemas-microsoft-com:datatypes""><Description dt:dt=""string"">E-Prime Primary Realtime Clock</Description><StartTime><Timestamp dt:dt=""int"">0</Timestamp><DateUtc dt:dt=""string"">2016-12-22T08:12:29Z</DateUtc></StartTime><FrequencyChanges><FrequencyChange><Frequency dt:dt=""r8"">3579545</Frequency><Timestamp dt:dt=""r8"">16446376886</Timestamp><Current dt:dt=""r8"">0</Current><DateUtc dt:dt=""string"">2016-12-22T08:12:29Z</DateUtc></FrequencyChange></FrequencyChanges></Clock>\n",2016-12-22 16:12,74.894,1,-732777191,12-22-2016,16:12:29,8:12:29,8,hood,9,1,7,,,,,,,0,,-999999,21,139208,1,1626,140834,,,,,,,,,aexppro111,block1,nv audio/hoed.wav,,,,,,,,,,,,,,,,,
nv,14,1,"<?xml version=""1.0""?>\n<Clock xmlns:dt=""urn:schemas-microsoft-com:datatypes""><Description dt:dt=""string"">E-Prime Primary Realtime Clock</Description><StartTime><Timestamp dt:dt=""int"">0</Timestamp><DateUtc dt:dt=""string"">2016-12-22T08:12:29Z</DateUtc></StartTime><FrequencyChanges><FrequencyChange><Frequency dt:dt=""r8"">3579545</Frequency><Timestamp dt:dt=""r8"">16446376886</Timestamp><Current dt:dt=""r8"">0</Current><DateUtc dt:dt=""string"">2016-12-22T08:12:29Z</DateUtc></FrequencyChange></FrequencyChanges></Clock>\n",2016-12-22 16:12,74.894,1,-732777191,12-22-2016,16:12:29,8:12:29,9,hood,12,1,8,,,,,,,0,,-999999,21,141358,1,857,142215,,,,,,,,,aexppro111,block1,nv audio/whod.wav
nv,14,1,"<?xml version=""1.0""?>\n<Clock xmlns:dt=""urn:schemas-microsoft-com:datatypes""><Description dt:dt=""string"">E-Prime Primary Realtime Clock</Description><StartTime><Timestamp dt:dt=""int"">0</Timestamp><DateUtc dt:dt=""string"">2016-12-22T08:12:29Z</DateUtc></StartTime><FrequencyChanges><FrequencyChange><Frequency dt:dt=""r8"">3579545</Frequency><Timestamp dt:dt=""r8"">16446376886</Timestamp><Current dt:dt=""r8"">0</Current><DateUtc dt:dt=""string"">2016-12-22T08:12:29Z</DateUtc></FrequencyChange></FrequencyChanges></Clock>\n",2016-12-22 16:12,74.894,1,-732777191,12-22-2016,16:12:29,8:12:29,10,hoed,2,1,9,,,,,,,0,,-999999,34,142760,1,3111,145871,,,,,,,,,aexppro111,block1,nv audio/hawed.wav
nv,14,1,"<?xml version=""1.0""?>\n<Clock xmlns:dt=""urn:schemas-microsoft-com:datatypes""><Description dt:dt=""string"">E-Prime Primary Realtime Clock</Description><StartTime><Timestamp dt:dt=""int"">0</Timestamp><DateUtc dt:dt=""string"">2016-12-22T08:12:29Z</DateUtc></StartTime><FrequencyChanges><FrequencyChange><Frequency dt:dt=""r8"">3579545</Frequency><Timestamp dt:dt=""r8"">16446376886</Timestamp><Current dt:dt=""r8"">0</Current><DateUtc dt:dt=""string"">2016-12-22T08:12:29Z</DateUtc></FrequencyChange></FrequencyChanges></Clock>\n",2016-12-22 16:12,74.894,1,-732777191,12-22-2016,16:12:29,8:12:29,11,heard,5,1,10,,,,,,,0,,-999999,21,146405,1,1026,147431,,,,,,,,,aexppro111,block1,nv audio/heard.wav
nv,14,1,"<?xml version=""1.0""?>\n<Clock xmlns:dt=""urn:schemas-microsoft-com:datatypes""><Description dt:dt=""string"">E-Prime Primary Realtime Clock</Description><StartTime><Timestamp dt:dt=""int"">0</Timestamp><DateUtc dt:dt=""string"">2016-12-22T08:12:29Z</DateUtc></StartTime><FrequencyChanges><FrequencyChange><Frequency dt:dt=""r8"">3579545</Frequency><Timestamp dt:dt=""r8"">16446376886</Timestamp><Current dt:dt=""r8"">0</Current><DateUtc dt:dt=""string"">2016-12-22T08:12:29Z</DateUtc></FrequencyChange></FrequencyChanges></Clock>\n",2016-12-22 16:12,74.894,1,-732777191,12-22-2016,16:12:29,8:12:29,12,hayed,11,1,11,,,,,,,0,,-999999,21,147954,1,2007,149961,,,,,,,,,aexppro111,block1,nv audio/hud.wav
nv,14,1,"<?xml version=""1.0""?>\n<Clock xmlns:dt=""urn:schemas-microsoft-com:datatypes""><Description dt:dt=""string"">E-Prime Primary Realtime Clock</Description><StartTime><Timestamp dt:dt=""int"">0</Timestamp><DateUtc dt:dt=""string"">2016-12-22T08:12:29Z</DateUtc></StartTime><FrequencyChanges><FrequencyChange><Frequency dt:dt=""r8"">3579545</Frequency><Timestamp dt:dt=""r8"">16446376886</Timestamp><Current dt:dt=""r8"">0</Current><DateUtc dt:dt=""string"">2016-12-22T08:12:29Z</DateUtc></FrequencyChange></FrequencyChanges></Clock>\n",2016-12-22 16:12,74.894,1,-732777191,12-22-2016,16:12:29,8:12:29,13,hawed,7,1,12,,,,,,,0,,-999999,21,150491,1,1459,151950,,,,,,,,,aexppro111,block1,nv audio/hid.wav
nv,14,1,"<?xml version=""1.0""?>\n<Clock xmlns:dt=""urn:schemas-microsoft-com:datatypes""><Description dt:dt=""string"">E-Prime Primary Realtime Clock</Description><StartTime><Timestamp dt:dt=""int"">0</Timestamp><DateUtc dt:dt=""string"">2016-12-22T08:12:29Z</DateUtc></StartTime><FrequencyChanges><FrequencyChange><Frequency dt:dt=""r8"">3579545</Frequency><Timestamp dt:dt=""r8"">16446376886</Timestamp><Current dt:dt=""r8"">0</Current><DateUtc dt:dt=""string"">2016-12-22T08:12:29Z</DateUtc></FrequencyChange></FrequencyChanges></Clock>\n",2016-12-22 16:12,74.894,1,-732777191,12-22-2016,16:12:29,8:12:29,14,hoed,9,2,13,,,,,,,0,,-999999,35,152494,1,3866,156360,,,,,,,,,aexppro111,block1,nv audio/hoed.wav
nv,14,1,"<?xml version=""1.0""?>\n<Clock xmlns:dt=""urn:schemas-microsoft-com:datatypes""><Description dt:dt=""string"">E-Prime Primary Realtime Clock</Description><StartTime><Timestamp dt:dt=""int"">0</Timestamp><DateUtc dt:dt=""string"">2016-12-22T08:12:29Z</DateUtc></StartTime><FrequencyChanges><FrequencyChange><Frequency dt:dt=""r8"">3579545</Frequency><Timestamp dt:dt=""r8"">16446376886</Timestamp><Current dt:dt=""r8"">0</Current><DateUtc dt:dt=""string"">2016-12-22T08:12:29Z</DateUtc></FrequencyChange></FrequencyChanges></Clock>\n",2016-12-22 16:12,74.894,1,-732777191,12-22-2016,16:12:29,8:12:29,15,heed,6,2,14,,,,,,,0,,-999999,34,156900,1,2080,158980,,,,,,,,,aexppro111,block1,nv audio/heed.wav
nv,14,1,"<?xml version=""1.0""?>\n<Clock xmlns:dt=""urn:schemas-microsoft-com:datatypes""><Description dt:dt=""string"">E-Prime Primary Realtime Clock</Description><StartTime><Timestamp dt:dt=""int"">0</Timestamp><DateUtc dt:dt=""string"">2016-12-22T08:12:29Z</DateUtc></StartTime><FrequencyChanges><FrequencyChange><Frequency dt:dt=""r8"">3579545</Frequency><Timestamp dt:dt=""r8"">16446376886</Timestamp><Current dt:dt=""r8"">0</Current><DateUtc dt:dt=""string"">2016-12-22T08:12:29Z</DateUtc></FrequencyChange></FrequencyChanges></Clock>\n",2016-12-22 16:12,74.894,1,-732777191,12-22-2016,16:12:29,8:12:29,16,hid,1,2,15,,,,,,,0,,-999999,20,159503,1,2859,162362,,,,,,,,,aexppro111,block1,nv audio/had.wav
nv,14,1,"<?xml version=""1.0""?>\n<Clock xmlns:dt=""urn:schemas-microsoft-com:datatypes""><Description dt:dt=""string"">E-Prime Primary Realtime Clock</Description><StartTime><Timestamp dt:dt=""int"">0</Timestamp><DateUtc dt:dt=""string"">2016-12-22T08:12:29Z</DateUtc></StartTime><FrequencyChanges><FrequencyChange><Frequency dt:dt=""r8"">3579545</Frequency><Timestamp dt:dt=""r8"">16446376886</Timestamp><Current dt:dt=""r8"">0</Current><DateUtc dt:dt=""string"">2016-12-22T08:12:29Z</DateUtc></FrequencyChange></FrequencyChanges></Clock>\n",2016-12-22 16:12,74.894,1,-732777191,12-22-2016,16:12:29,8:12:29,17,had,3,2,16,,,,,,,0,,-999999,21,162895,1,2073,164968,,,,,,,,,aexppro111,block1,nv audio/hayed.wav
nv,14,1,"<?xml version=""1.0""?>\n<Clock xmlns:dt=""urn:schemas-microsoft-com:datatypes""><Description dt:dt=""string"">E-Prime Primary Realtime Clock</Description><StartTime><Timestamp dt:dt=""int"">0</Timestamp><DateUtc dt:dt=""string"">2016-12-22T08:12:29Z</DateUtc></StartTime><FrequencyChanges><FrequencyChange><Frequency dt:dt=""r8"">3579545</Frequency><Timestamp dt:dt=""r8"">16446376886</Timestamp><Current dt:dt=""r8"">0</Current><DateUtc dt:dt=""string"">2016-12-22T08:12:29Z</DateUtc></FrequencyChange></FrequencyChanges></Clock>\n",2016-12-22 16:12,74.894,1,-732777191,12-22-2016,16:12:29,8:12:29,18,hayed,4,2,17,,,,,,,0,,-999999,20,165498,1,2564,168062,,,,,,,,,aexppro111,block1,nv audio/head.wav
nv,14,1,"<?xml version=""1.0""?>\n<Clock xmlns:dt=""urn:schemas-microsoft-com:datatypes""><Description dt:dt=""string"">E-Prime Primary Realtime Clock</Description><StartTime><Timestamp dt:dt=""int"">0</Timestamp><DateUtc dt:dt=""string"">2016-12-22T08:12:29Z</DateUtc></StartTime><FrequencyChanges><FrequencyChange><Frequency dt:dt=""r8"">3579545</Frequency><Timestamp dt:dt=""r8"">16446376886</Timestamp><Current dt:dt=""r8"">0</Current><DateUtc dt:dt=""string"">2016-12-22T08:12:29Z</DateUtc></FrequencyChange></FrequencyChanges></Clock>\n",2016-12-22 16:12,74.894,1,-732777191,12-22-2016,16:12:29,8:12:29,19,hud,11,2,18,,,,,,,0,,-999999,21,168596,1,2190,170786,,,,,,,,,aexppro111,block1,nv audio/hud.wav
nv,14,1,"<?xml version=""1.0""?>\n<Clock xmlns:dt=""urn:schemas-microsoft-com:datatypes""><Description dt:dt=""string"">E-Prime Primary Realtime Clock</Description><StartTime><Timestamp dt:dt=""int"">0</Timestamp><DateUtc dt:dt=""string"">2016-12-22T08:12:29Z</DateUtc></StartTime><FrequencyChanges><FrequencyChange><Frequency dt:dt=""r8"">3579545</Frequency><Timestamp dt:dt=""r8"">16446376886</Timestamp><Current dt:dt=""r8"">0</Current><DateUtc dt:dt=""string"">2016-12-22T08:12:29Z</DateUtc></FrequencyChange></FrequencyChanges></Clock>\n",2016-12-22 16:12,74.894,1,-732777191,12-22-2016,16:12:29,8:12:29,20,hud,8,2,19,,,,,,,0,,-999999,21,171320,1,3165,174485,,,,,,,,,aexppro111,block1,nv audio/hod.wav
nv,14,1,"<?xml version=""1.0""?>\n<Clock xmlns:dt=""urn:schemas-microsoft-com:datatypes""><Description dt:dt=""string"">E-Prime Primary Realtime Clock</Description><StartTime><Timestamp dt:dt=""int"">0</Timestamp><DateUtc dt:dt=""string"">2016-12-22T08:12:29Z</DateUtc></StartTime><FrequencyChanges><FrequencyChange><Frequency dt:dt=""r8"">3579545</Frequency><Timestamp dt:dt=""r8"">16446376886</Timestamp><Current dt:dt=""r8"">0</Current><DateUtc dt:dt=""string"">2016-12-22T08:12:29Z</DateUtc></FrequencyChange></FrequencyChanges></Clock>\n",2016-12-22 16:12,74.894,1,-732777191,12-22-2016,16:12:29,8:12:29,21,whod,10,2,20,,,,,,,0,,-999999,21,175019,1,1281,176300,,,,,,,,,aexppro111,block1,nv audio/hood.wav
nv,14,1,"<?xml version=""1.0""?>\n<Clock xmlns:dt=""urn:schemas-microsoft-com:datatypes""><Description dt:dt=""string"">E-Prime Primary Realtime Clock</Description><StartTime><Timestamp dt:dt=""int"">0</Timestamp><DateUtc dt:dt=""string"">2016-12-22T08:12:29Z</DateUtc></StartTime><FrequencyChanges><FrequencyChange><Frequency dt:dt=""r8"">3579545</Frequency><Timestamp dt:dt=""r8"">16446376886</Timestamp><Current dt:dt=""r8"">0</Current><DateUtc dt:dt=""string"">2016-12-22T08:12:29Z</DateUtc></FrequencyChange></FrequencyChanges></Clock>\n",2016-12-22 16:12,74.894,1,-732777191,12-22-2016,16:12:29,8:12:29,22,hoed,7,2,21,,,,,,,0,,-999999,20,176834,1,1244,178078,,,,,,,,,aexppro111,block1,nv audio/hid.wav
nv,14,1,"<?xml version=""1.0""?>\n<Clock xmlns:dt=""urn:schemas-microsoft-com:datatypes""><Description dt:dt=""string"">E-Prime Primary Realtime Clock</Description><StartTime><Timestamp dt:dt=""int"">0</Timestamp><DateUtc dt:dt=""string"">2016-12-22T08:12:29Z</DateUtc></StartTime><FrequencyChanges><FrequencyChange><Frequency dt:dt=""r8"">3579545</Frequency><Timestamp dt:dt=""r8"">16446376886</Timestamp><Current dt:dt=""r8"">0</Current><DateUtc dt:dt=""string"">2016-12-22T08:12:29Z</DateUtc></FrequencyChange></FrequencyChanges></Clock>\n",2016-12-22 16:12,74.894,1,-732777191,12-22-2016,16:12:29,8:12:29,23,hud,2,2,22,,,,,,,0,,-999999,20,178610,1,2490,181100,,,,,,,,,aexppro111,block1,nv audio/hawed.wav
nv,14,1,"<?xml version=""1.0""?>\n<Clock xmlns:dt=""urn:schemas-microsoft-com:datatypes""><Description dt:dt=""string"">E-Prime Primary Realtime Clock</Description><StartTime><Timestamp dt:dt=""int"">0</Timestamp><DateUtc dt:dt=""string"">2016-12-22T08:12:29Z</DateUtc></StartTime><FrequencyChanges><FrequencyChange><Frequency dt:dt=""r8"">3579545</Frequency><Timestamp dt:dt=""r8"">16446376886</Timestamp><Current dt:dt=""r8"">0</Current><DateUtc dt:dt=""string"">2016-12-22T08:12:29Z</DateUtc></FrequencyChange></FrequencyChanges></Clock>\n",2016-12-22 16:12,74.894,1,-732777191,12-22-2016,16:12:29,8:12:29,24,whod,12,2,23,,,,,,,0,,-999999,21,181628,1,3456,185084,,,,,,,,,aexppro111,block1,nv audio/whod.wav
nv,14,1,"<?xml version=""1.0""?>\n<Clock xmlns:dt=""urn:schemas-microsoft-com:datatypes""><Description dt:dt=""string"">E-Prime Primary Realtime Clock</Description><StartTime><Timestamp dt:dt=""int"">0</Timestamp><DateUtc dt:dt=""string"">2016-12-22T08:12:29Z</DateUtc></StartTime><FrequencyChanges><FrequencyChange><Frequency dt:dt=""r8"">3579545</Frequency><Timestamp dt:dt=""r8"">16446376886</Timestamp><Current dt:dt=""r8"">0</Current><DateUtc dt:dt=""string"">2016-12-22T08:12:29Z</DateUtc></FrequencyChange></FrequencyChanges></Clock>\n",2016-12-22 16:12,74.894,1,-732777191,12-22-2016,16:12:29,8:12:29,25,heard,5,2,24,,,,,,,0,,-999999,21,185607,1,1217,186824,,,,,,,,,aexppro111,block1,nv audio/heard.wav
nv,14,1,"<?xml version=""1.0""?>\n<Clock xmlns:dt=""urn:schemas-microsoft-com:datatypes""><Description dt:dt=""string"">E-Prime Primary Realtime Clock</Description><StartTime><Timestamp dt:dt=""int"">0</Timestamp><DateUtc dt:dt=""string"">2016-12-22T08:12:29Z</DateUtc></StartTime><FrequencyChanges><FrequencyChange><Frequency dt:dt=""r8"">3579545</Frequency><Timestamp dt:dt=""r8"">16446376886</Timestamp><Current dt:dt=""r8"">0</Current><DateUtc dt:dt=""string"">2016-12-22T08:12:29Z</DateUtc></FrequencyChange></FrequencyChanges></Clock>\n",2016-12-22 16:12,74.894,1,-732777191,12-22-2016,16:12:29,8:12:29,26,hud,2,3,25,,,,,,,0,,-999999,34,187369,1,2073,189442,,,,,,,,,aexppro111,block1,nv audio/hawed.wav
nv,14,1,"<?xml version=""1.0""?>\n<Clock xmlns:dt=""urn:schemas-microsoft-com:datatypes""><Description dt:dt=""string"">E-Prime Primary Realtime Clock</Description><StartTime><Timestamp dt:dt=""int"">0</Timestamp><DateUtc dt:dt=""string"">2016-12-22T08:12:29Z</DateUtc></StartTime><FrequencyChanges><FrequencyChange><Frequency dt:dt=""r8"">3579545</Frequency><Timestamp dt:dt=""r8"">16446376886</Timestamp><Current dt:dt=""r8"">0</Current><DateUtc dt:dt=""string"">2016-12-22T08:12:29Z</DateUtc></FrequencyChange></FrequencyChanges></Clock>\n",2016-12-22 16:12,74.894,1,-732777191,12-22-2016,16:12:29,8:12:29,27,hayed,4,3,26,,,,,,,0,,-999999,21,189973,1,3123,193096,,,,,,,,,aexppro111,block1,nv audio/head.wav
nv,14,1,"<?xml version=""1.0""?>\n<Clock xmlns:dt=""urn:schemas-microsoft-com:datatypes""><Description dt:dt=""string"">E-Prime Primary Realtime Clock</Description><StartTime><Timestamp dt:dt=""int"">0</Timestamp><DateUtc dt:dt=""string"">2016-12-22T08:12:29Z</DateUtc></StartTime><FrequencyChanges><FrequencyChange><Frequency dt:dt=""r8"">3579545</Frequency><Timestamp dt:dt=""r8"">16446376886</Timestamp><Current dt:dt=""r8"">0</Current><DateUtc dt:dt=""string"">2016-12-22T08:12:29Z</DateUtc></FrequencyChange></FrequencyChanges></Clock>\n",2016-12-22 16:12,74.894,1,-732777191,12-22-2016,16:12:29,8:12:29,28,hayed,1,3,27,,,,,,,0,,-999999,20,193631,1,1181,194812,,,,,,,,,aexppro111,block1,nv audio/had.wav
nv,14,1,"<?xml version=""1.0""?>\n<Clock xmlns:dt=""urn:schemas-microsoft-com:datatypes""><Description dt:dt=""string"">E-Prime Primary Realtime Clock</Description><StartTime><Timestamp dt:dt=""int"">0</Timestamp><DateUtc dt:dt=""string"">2016-12-22T08:12:29Z</DateUtc></StartTime><FrequencyChanges><FrequencyChange><Frequency dt:dt=""r8"">3579545</Frequency><Timestamp dt:dt=""r8"">16446376886</Timestamp><Current dt:dt=""r8"">0</Current><DateUtc dt:dt=""string"">2016-12-22T08:12:29Z</DateUtc></FrequencyChange></FrequencyChanges></Clock>\n",2016-12-22 16:12,74.894,1,-732777191,12-22-2016,16:12:29,8:12:29,29,whod,10,3,28,,,,,,,0,,-999999,34,195354,1,2666,198020,,,,,,,,,aexppro111,block1,nv audio/hood.wav
nv,14,1,"<?xml version=""1.0""?>\n<Clock xmlns:dt=""urn:schemas-microsoft-com:datatypes""><Description dt:dt=""string"">E-Prime Primary Realtime Clock</Description><StartTime><Timestamp dt:dt=""int"">0</Timestamp><DateUtc dt:dt=""string"">2016-12-22T08:12:29Z</DateUtc></StartTime><FrequencyChanges><FrequencyChange><Frequency dt:dt=""r8"">3579545</Frequency><Timestamp dt:dt=""r8"">16446376886</Timestamp><Current dt:dt=""r8"">0</Current><DateUtc dt:dt=""string"">2016-12-22T08:12:29Z</DateUtc></FrequencyChange></FrequencyChanges></Clock>\n",2016-12-22 16:12,74.894,1,-732777191,12-22-2016,16:12:29,8:12:29,30,hod,9,3,29,,,,,,,0,,-999999,21,198545,1,2353,200898,,,,,,,,,aexppro111,block1,nv audio/hoed.wav
nv,14,1,"<?xml version=""1.0""?>\n<Clock xmlns:dt=""urn:schemas-microsoft-com:datatypes""><Description dt:dt=""string"">E-Prime Primary Realtime Clock</Description><StartTime><Timestamp dt:dt=""int"">0</Timestamp><DateUtc dt:dt=""string"">2016-12-22T08:12:29Z</DateUtc></StartTime><FrequencyChanges><FrequencyChange><Frequency dt:dt=""r8"">3579545</Frequency><Timestamp dt:dt=""r8"">16446376886</Timestamp><Current dt:dt=""r8"">0</Current><DateUtc dt:dt=""string"">2016-12-22T08:12:29Z</DateUtc></FrequencyChange></FrequencyChanges></Clock>\n",2016-12-22 16:12,74.894,1,-732777191,12-22-2016,16:12:29,8:12:29,31,hud,3,3,30,,,,,,,0,,-999999,21,201429,1,1941,203370,,,,,,,,,aexppro111,block1,nv audio/hayed.wav
nv,14,1,"<?xml version=""1.0""?>\n<Clock xmlns:dt=""urn:schemas-microsoft-com:datatypes""><Description dt:dt=""string"">E-Prime Primary Realtime Clock</Description><StartTime><Timestamp dt:dt=""int"">0</Timestamp><DateUtc dt:dt=""string"">2016-12-22T08:12:29Z</DateUtc></StartTime><FrequencyChanges><FrequencyChange><Frequency dt:dt=""r8"">3579545</Frequency><Timestamp dt:dt=""r8"">16446376886</Timestamp><Current dt:dt=""r8"">0</Current><DateUtc dt:dt=""string"">2016-12-22T08:12:29Z</DateUtc></FrequencyChange></FrequencyChanges></Clock>\n",2016-12-22 16:12,74.894,1,-732777191,12-22-2016,16:12:29,8:12:29,32,hid,8,3,31,,,,,,,0,,-999999,34,203913,1,3230,207143,,,,,,,,,aexppro111,block1,nv audio/hod.wav
nv,14,1,"<?xml version=""1.0""?>\n<Clock xmlns:dt=""urn:schemas-microsoft-com:datatypes""><Description dt:dt=""string"">E-Prime Primary Realtime Clock</Description><StartTime><Timestamp dt:dt=""int"">0</Timestamp><DateUtc dt:dt=""string"">2016-12-22T08:12:29Z</DateUtc></StartTime><FrequencyChanges><FrequencyChange><Frequency dt:dt=""r8"">3579545</Frequency><Timestamp dt:dt=""r8"">16446376886</Timestamp><Current dt:dt=""r8"">0</Current><DateUtc dt:dt=""string"">2016-12-22T08:12:29Z</DateUtc></FrequencyChange></FrequencyChanges></Clock>\n",2016-12-22 16:12,74.894,1,-732777191,12-22-2016,16:12:29,8:12:29,33,hoed,7,3,32,,,,,,,0,,-999999,21,207678,1,4221,211899,,,,,,,,,aexppro111,block1,nv audio/hid.wav
nv,14,1,"<?xml version=""1.0""?>\n<Clock xmlns:dt=""urn:schemas-microsoft-com:datatypes""><Description dt:dt=""string"">E-Prime Primary Realtime Clock</Description><StartTime><Timestamp dt:dt=""int"">0</Timestamp><DateUtc dt:dt=""string"">2016-12-22T08:12:29Z</DateUtc></StartTime><FrequencyChanges><FrequencyChange><Frequency dt:dt=""r8"">3579545</Frequency><Timestamp dt:dt=""r8"">16446376886</Timestamp><Current dt:dt=""r8"">0</Current><DateUtc dt:dt=""string"">2016-12-22T08:12:29Z</DateUtc></FrequencyChange></FrequencyChanges></Clock>\n",2016-12-22 16:12,74.894,1,-732777191,12-22-2016,16:12:29,8:12:29,34,heed,6,3,33,,,,,,,0,,-999999,47,212458,1,3370,215828,,,,,,,,,aexppro111,block1,nv audio/heed.wav
nv,14,1,"<?xml version=""1.0""?>\n<Clock xmlns:dt=""urn:schemas-microsoft-com:datatypes""><Description dt:dt=""string"">E-Prime Primary Realtime Clock</Description><StartTime><Timestamp dt:dt=""int"">0</Timestamp><DateUtc dt:dt=""string"">2016-12-22T08:12:29Z</DateUtc></StartTime><FrequencyChanges><FrequencyChange><Frequency dt:dt=""r8"">3579545</Frequency><Timestamp dt:dt=""r8"">16446376886</Timestamp><Current dt:dt=""r8"">0</Current><DateUtc dt:dt=""string"">2016-12-22T08:12:29Z</DateUtc></FrequencyChange></FrequencyChanges></Clock>\n",2016-12-22 16:12,74.894,1,-732777191,12-22-2016,16:12:29,8:12:29,35,hid,11,3,34,,,,,,,0,,-999999,21,216357,1,2651,219008,,,,,,,,,aexppro111,block1,nv audio/hud.wav
nv,14,1,"<?xml version=""1.0""?>\n<Clock xmlns:dt=""urn:schemas-microsoft-com:datatypes""><Description dt:dt=""string"">E-Prime Primary Realtime Clock</Description><StartTime><Timestamp dt:dt=""int"">0</Timestamp><DateUtc dt:dt=""string"">2016-12-22T08:12:29Z</DateUtc></StartTime><FrequencyChanges><FrequencyChange><Frequency dt:dt=""r8"">3579545</Frequency><Timestamp dt:dt=""r8"">16446376886</Timestamp><Current dt:dt=""r8"">0</Current><DateUtc dt:dt=""string"">2016-12-22T08:12:29Z</DateUtc></FrequencyChange></FrequencyChanges></Clock>\n",2016-12-22 16:12,74.894,1,-732777191,12-22-2016,16:12:29,8:12:29,36,heard,5,3,35,,,,,,,0,,-999999,21,219535,1,1555,221090,,,,,,,,,aexppro111,block1,nv audio/heard.wav
nv,14,1,"<?xml version=""1.0""?>\n<Clock xmlns:dt=""urn:schemas-microsoft-com:datatypes""><Description dt:dt=""string"">E-Prime Primary Realtime Clock</Description><StartTime><Timestamp dt:dt=""int"">0</Timestamp><DateUtc dt:dt=""string"">2016-12-22T08:12:29Z</DateUtc></StartTime><FrequencyChanges><FrequencyChange><Frequency dt:dt=""r8"">3579545</Frequency><Timestamp dt:dt=""r8"">16446376886</Timestamp><Current dt:dt=""r8"">0</Current><DateUtc dt:dt=""string"">2016-12-22T08:12:29Z</DateUtc></FrequencyChange></FrequencyChanges></Clock>\n",2016-12-22 16:12,74.894,1,-732777191,12-22-2016,16:12:29,8:12:29,37,whod,12,3,36,,,,,,,0,,-999999,34,221631,1,1552,223183,,,,,,,,,aexppro111,block1,nv audio/whod.wav
nv,14,1,"<?xml version=""1.0""?>\n<Clock xmlns:dt=""urn:schemas-microsoft-com:datatypes""><Description dt:dt=""string"">E-Prime Primary Realtime Clock</Description><StartTime><Timestamp dt:dt=""int"">0</Timestamp><DateUtc dt:dt=""string"">2016-12-22T08:12:29Z</DateUtc></StartTime><FrequencyChanges><FrequencyChange><Frequency dt:dt=""r8"">3579545</Frequency><Timestamp dt:dt=""r8"">16446376886</Timestamp><Current dt:dt=""r8"">0</Current><DateUtc dt:dt=""string"">2016-12-22T08:12:29Z</DateUtc></FrequencyChange></FrequencyChanges></Clock>\n",2016-12-22 16:12,74.894,1,-732777191,12-22-2016,16:12:29,8:12:29,38,heed,6,4,37,,,,,,,0,,-999999,34,223727,1,4165,227892,,,,,,,,,aexppro111,block1,nv audio/heed.wav
nv,14,1,"<?xml version=""1.0""?>\n<Clock xmlns:dt=""urn:schemas-microsoft-com:datatypes""><Description dt:dt=""string"">E-Prime Primary Realtime Clock</Description><StartTime><Timestamp dt:dt=""int"">0</Timestamp><DateUtc dt:dt=""string"">2016-12-22T08:12:29Z</DateUtc></StartTime><FrequencyChanges><FrequencyChange><Frequency dt:dt=""r8"">3579545</Frequency><Timestamp dt:dt=""r8"">16446376886</Timestamp><Current dt:dt=""r8"">0</Current><DateUtc dt:dt=""string"">2016-12-22T08:12:29Z</DateUtc></FrequencyChange></FrequencyChanges></Clock>\n",2016-12-22 16:12,74.894,1,-732777191,12-22-2016,16:12:29,8:12:29,39,hayed,4,4,38,,,,,,,0,,-999999,21,228414,1,1243,229657,,,,,,,,,aexppro111,block1,nv audio/head.wav
nv,14,1,"<?xml version=""1.0""?>\n<Clock xmlns:dt=""urn:schemas-microsoft-com:datatypes""><Description dt:dt=""string"">E-Prime Primary Realtime Clock</Description><StartTime><Timestamp dt:dt=""int"">0</Timestamp><DateUtc dt:dt=""string"">2016-12-22T08:12:29Z</DateUtc></StartTime><FrequencyChanges><FrequencyChange><Frequency dt:dt=""r8"">3579545</Frequency><Timestamp dt:dt=""r8"">16446376886</Timestamp><Current dt:dt=""r8"">0</Current><DateUtc dt:dt=""string"">2016-12-22T08:12:29Z</DateUtc></FrequencyChange></FrequencyChanges></Clock>\n",2016-12-22 16:12,74.894,1,-732777191,12-22-2016,16:12:29,8:12:29,40,had,2,4,39,,,,,,,0,,-999999,21,230190,1,2938,233128,,,,,,,,,aexppro111,block1,nv audio/hawed.wav
nv,14,1,"<?xml version=""1.0""?>\n<Clock xmlns:dt=""urn:schemas-microsoft-com:datatypes""><Description dt:dt=""string"">E-Prime Primary Realtime Clock</Description><StartTime><Timestamp dt:dt=""int"">0</Timestamp><DateUtc dt:dt=""string"">2016-12-22T08:12:29Z</DateUtc></StartTime><FrequencyChanges><FrequencyChange><Frequency dt:dt=""r8"">3579545</Frequency><Timestamp dt:dt=""r8"">16446376886</Timestamp><Current dt:dt=""r8"">0</Current><DateUtc dt:dt=""string"">2016-12-22T08:12:29Z</DateUtc></FrequencyChange></FrequencyChanges></Clock>\n",2016-12-22 16:12,74.894,1,-732777191,12-22-2016,16:12:29,8:12:29,41,hood,12,4,40,,,,,,,0,,-999999,21,233661,1,1597,235258,,,,,,,,,aexppro111,block1,nv audio/whod.wav
nv,14,1,"<?xml version=""1.0""?>\n<Clock xmlns:dt=""urn:schemas-microsoft-com:datatypes""><Description dt:dt=""string"">E-Prime Primary Realtime Clock</Description><StartTime><Timestamp dt:dt=""int"">0</Timestamp><DateUtc dt:dt=""string"">2016-12-22T08:12:29Z</DateUtc></StartTime><FrequencyChanges><FrequencyChange><Frequency dt:dt=""r8"">3579545</Frequency><Timestamp dt:dt=""r8"">16446376886</Timestamp><Current dt:dt=""r8"">0</Current><DateUtc dt:dt=""string"">2016-12-22T08:12:29Z</DateUtc></FrequencyChange></FrequencyChanges></Clock>\n",2016-12-22 16:12,74.894,1,-732777191,12-22-2016,16:12:29,8:12:29,42,hud,3,4,41,,,,,,,0,,-999999,21,235784,1,2405,238189,,,,,,,,,aexppro111,block1,nv audio/hayed.wav
nv,14,1,"<?xml version=""1.0""?>\n<Clock xmlns:dt=""urn:schemas-microsoft-com:datatypes""><Description dt:dt=""string"">E-Prime Primary Realtime Clock</Description><StartTime><Timestamp dt:dt=""int"">0</Timestamp><DateUtc dt:dt=""string"">2016-12-22T08:12:29Z</DateUtc></StartTime><FrequencyChanges><FrequencyChange><Frequency dt:dt=""r8"">3579545</Frequency><Timestamp dt:dt=""r8"">16446376886</Timestamp><Current dt:dt=""r8"">0</Current><DateUtc dt:dt=""string"">2016-12-22T08:12:29Z</DateUtc></FrequencyChange></FrequencyChanges></Clock>\n",2016-12-22 16:12,74.894,1,-732777191,12-22-2016,16:12:29,8:12:29,43,hawed,7,4,42,,,,,,,0,,-999999,21,238722,1,2004,240726,,,,,,,,,aexppro111,block1,nv audio/hid.wav
nv,14,1,"<?xml version=""1.0""?>\n<Clock xmlns:dt=""urn:schemas-microsoft-com:datatypes""><Description dt:dt=""string"">E-Prime Primary Realtime Clock</Description><StartTime><Timestamp dt:dt=""int"">0</Timestamp><DateUtc dt:dt=""string"">2016-12-22T08:12:29Z</DateUtc></StartTime><FrequencyChanges><FrequencyChange><Frequency dt:dt=""r8"">3579545</Frequency><Timestamp dt:dt=""r8"">16446376886</Timestamp><Current dt:dt=""r8"">0</Current><DateUtc dt:dt=""string"">2016-12-22T08:12:29Z</DateUtc></FrequencyChange></FrequencyChanges></Clock>\n",2016-12-22 16:12,74.894,1,-732777191,12-22-2016,16:12:29,8:12:29,44,whod,10,4,43,,,,,,,0,,-999999,47,241285,1,1086,242371,,,,,,,,,aexppro111,block1,nv audio/hood.wav
nv,14,1,"<?xml version=""1.0""?>\n<Clock xmlns:dt=""urn:schemas-microsoft-com:datatypes""><Description dt:dt=""string"">E-Prime Primary Realtime Clock</Description><StartTime><Timestamp dt:dt=""int"">0</Timestamp><DateUtc dt:dt=""string"">2016-12-22T08:12:29Z</DateUtc></StartTime><FrequencyChanges><FrequencyChange><Frequency dt:dt=""r8"">3579545</Frequency><Timestamp dt:dt=""r8"">16446376886</Timestamp><Current dt:dt=""r8"">0</Current><DateUtc dt:dt=""string"">2016-12-22T08:12:29Z</DateUtc></FrequencyChange></FrequencyChanges></Clock>\n",2016-12-22 16:12,74.894,1,-732777191,12-22-2016,16:12:29,8:12:29,45,heard,5,4,44,,,,,,,0,,-999999,34,242914,1,1040,243954,,,,,,,,,aexppro111,block1,nv audio/heard.wav
nv,14,1,"<?xml version=""1.0""?>\n<Clock xmlns:dt=""urn:schemas-microsoft-com:datatypes""><Description dt:dt=""string"">E-Prime Primary Realtime Clock</Description><StartTime><Timestamp dt:dt=""int"">0</Timestamp><DateUtc dt:dt=""string"">2016-12-22T08:12:29Z</DateUtc></StartTime><FrequencyChanges><FrequencyChange><Frequency dt:dt=""r8"">3579545</Frequency><Timestamp dt:dt=""r8"">16446376886</Timestamp><Current dt:dt=""r8"">0</Current><DateUtc dt:dt=""string"">2016-12-22T08:12:29Z</DateUtc></FrequencyChange></FrequencyChanges></Clock>\n",2016-12-22 16:12,74.894,1,-732777191,12-22-2016,16:12:29,8:12:29,46,heed,1,4,45,,,,,,,0,,-999999,34,244490,1,953,245443,,,,,,,,,aexppro111,block1,nv audio/had.wav
nv,14,1,"<?xml version=""1.0""?>\n<Clock xmlns:dt=""urn:schemas-microsoft-com:datatypes""><Description dt:dt=""string"">E-Prime Primary Realtime Clock</Description><StartTime><Timestamp dt:dt=""int"">0</Timestamp><DateUtc dt:dt=""string"">2016-12-22T08:12:29Z</DateUtc></StartTime><FrequencyChanges><FrequencyChange><Frequency dt:dt=""r8"">3579545</Frequency><Timestamp dt:dt=""r8"">16446376886</Timestamp><Current dt:dt=""r8"">0</Current><DateUtc dt:dt=""string"">2016-12-22T08:12:29Z</DateUtc></FrequencyChange></FrequencyChanges></Clock>\n",2016-12-22 16:12,74.894,1,-732777191,12-22-2016,16:12:29,8:12:29,47,hoed,8,4,46,,,,,,,0,,-999999,21,245972,1,4403,250375,,,,,,,,,aexppro111,block1,nv audio/hod.wav
nv,14,1,"<?xml version=""1.0""?>\n<Clock xmlns:dt=""urn:schemas-microsoft-com:datatypes""><Description dt:dt=""string"">E-Prime Primary Realtime Clock</Description><StartTime><Timestamp dt:dt=""int"">0</Timestamp><DateUtc dt:dt=""string"">2016-12-22T08:12:29Z</DateUtc></StartTime><FrequencyChanges><FrequencyChange><Frequency dt:dt=""r8"">3579545</Frequency><Timestamp dt:dt=""r8"">16446376886</Timestamp><Current dt:dt=""r8"">0</Current><DateUtc dt:dt=""string"">2016-12-22T08:12:29Z</DateUtc></FrequencyChange></FrequencyChanges></Clock>\n",2016-12-22 16:12,74.894,1,-732777191,12-22-2016,16:12:29,8:12:29,48,hawed,9,4,47,,,,,,,0,,-999999,34,250912,1,2150,253062,,,,,,,,,aexppro111,block1,nv audio/hoed.wav
nv,14,1,"<?xml version=""1.0""?>\n<Clock xmlns:dt=""urn:schemas-microsoft-com:datatypes""><Description dt:dt=""string"">E-Prime Primary Realtime Clock</Description><StartTime><Timestamp dt:dt=""int"">0</Timestamp><DateUtc dt:dt=""string"">2016-12-22T08:12:29Z</DateUtc></StartTime><FrequencyChanges><FrequencyChange><Frequency dt:dt=""r8"">3579545</Frequency><Timestamp dt:dt=""r8"">16446376886</Timestamp><Current dt:dt=""r8"">0</Current><DateUtc dt:dt=""string"">2016-12-22T08:12:29Z</DateUtc></FrequencyChange></FrequencyChanges></Clock>\n",2016-12-22 16:12,74.894,1,-732777191,12-22-2016,16:12:29,8:12:29,49,hid,11,4,48,,,,,,,0,,-999999,21,253596,1,3188,256784,,,,,,,,,aexppro111,block1,nv audio/hud.wav
nv,14,1,"<?xml version=""1.0""?>\n<Clock xmlns:dt=""urn:schemas-microsoft-com:datatypes""><Description dt:dt=""string"">E-Prime Primary Realtime Clock</Description><StartTime><Timestamp dt:dt=""int"">0</Timestamp><DateUtc dt:dt=""string"">2016-12-22T08:12:29Z</DateUtc></StartTime><FrequencyChanges><FrequencyChange><Frequency dt:dt=""r8"">3579545</Frequency><Timestamp dt:dt=""r8"">16446376886</Timestamp><Current dt:dt=""r8"">0</Current><DateUtc dt:dt=""string"">2016-12-22T08:12:29Z</DateUtc></FrequencyChange></FrequencyChanges></Clock>\n",2016-12-22 16:12,74.894,1,-732777191,12-22-2016,16:12:29,8:12:29,50,hayed,4,5,49,,,,,,,0,,-999999,34,257321,1,2605,259926,,,,,,,,,aexppro111,block1,nv audio/head.wav
nv,14,1,"<?xml version=""1.0""?>\n<Clock xmlns:dt=""urn:schemas-microsoft-com:datatypes""><Description dt:dt=""string"">E-Prime Primary Realtime Clock</Description><StartTime><Timestamp dt:dt=""int"">0</Timestamp><DateUtc dt:dt=""string"">2016-12-22T08:12:29Z</DateUtc></StartTime><FrequencyChanges><FrequencyChange><Frequency dt:dt=""r8"">3579545</Frequency><Timestamp dt:dt=""r8"">16446376886</Timestamp><Current dt:dt=""r8"">0</Current><DateUtc dt:dt=""string"">2016-12-22T08:12:29Z</DateUtc></FrequencyChange></FrequencyChanges></Clock>\n",2016-12-22 16:12,74.894,1,-732777191,12-22-2016,16:12:29,8:12:29,51,heard,5,5,50,,,,,,,0,,-999999,21,260459,1,989,261448,,,,,,,,,aexppro111,block1,nv audio/heard.wav
nv,14,1,"<?xml version=""1.0""?>\n<Clock xmlns:dt=""urn:schemas-microsoft-com:datatypes""><Description dt:dt=""string"">E-Prime Primary Realtime Clock</Description><StartTime><Timestamp dt:dt=""int"">0</Timestamp><DateUtc dt:dt=""string"">2016-12-22T08:12:29Z</DateUtc></StartTime><FrequencyChanges><FrequencyChange><Frequency dt:dt=""r8"">3579545</Frequency><Timestamp dt:dt=""r8"">16446376886</Timestamp><Current dt:dt=""r8"">0</Current><DateUtc dt:dt=""string"">2016-12-22T08:12:29Z</DateUtc></FrequencyChange></FrequencyChanges></Clock>\n",2016-12-22 16:12,74.894,1,-732777191,12-22-2016,16:12:29,8:12:29,52,had,8,5,51,,,,,,,0,,-999999,34,261994,1,2720,264714,,,,,,,,,aexppro111,block1,nv audio/hod.wav
nv,14,1,"<?xml version=""1.0""?>\n<Clock xmlns:dt=""urn:schemas-microsoft-com:datatypes""><Description dt:dt=""string"">E-Prime Primary Realtime Clock</Description><StartTime><Timestamp dt:dt=""int"">0</Timestamp><DateUtc dt:dt=""string"">2016-12-22T08:12:29Z</DateUtc></StartTime><FrequencyChanges><FrequencyChange><Frequency dt:dt=""r8"">3579545</Frequency><Timestamp dt:dt=""r8"">16446376886</Timestamp><Current dt:dt=""r8"">0</Current><DateUtc dt:dt=""string"">2016-12-22T08:12:29Z</DateUtc></FrequencyChange></FrequencyChanges></Clock>\n",2016-12-22 16:12,74.894,1,-732777191,12-22-2016,16:12:29,8:12:29,53,whod,10,5,52,,,,,,,0,,-999999,21,265239,1,1289,266528,,,,,,,,,aexppro111,block1,nv audio/hood.wav
nv,14,1,"<?xml version=""1.0""?>\n<Clock xmlns:dt=""urn:schemas-microsoft-com:datatypes""><Description dt:dt=""string"">E-Prime Primary Realtime Clock</Description><StartTime><Timestamp dt:dt=""int"">0</Timestamp><DateUtc dt:dt=""string"">2016-12-22T08:12:29Z</DateUtc></StartTime><FrequencyChanges><FrequencyChange><Frequency dt:dt=""r8"">3579545</Frequency><Timestamp dt:dt=""r8"">16446376886</Timestamp><Current dt:dt=""r8"">0</Current><DateUtc dt:dt=""string"">2016-12-22T08:12:29Z</DateUtc></FrequencyChange></FrequencyChanges></Clock>\n",2016-12-22 16:12,74.894,1,-732777191,12-22-2016,16:12:29,8:12:29,54,hud,9,5,53,,,,,,,0,,-999999,34,267068,1,4063,271131,,,,,,,,,aexppro111,block1,nv audio/hoed.wav
nv,14,1,"<?xml version=""1.0""?>\n<Clock xmlns:dt=""urn:schemas-microsoft-com:datatypes""><Description dt:dt=""string"">E-Prime Primary Realtime Clock</Description><StartTime><Timestamp dt:dt=""int"">0</Timestamp><DateUtc dt:dt=""string"">2016-12-22T08:12:29Z</DateUtc></StartTime><FrequencyChanges><FrequencyChange><Frequency dt:dt=""r8"">3579545</Frequency><Timestamp dt:dt=""r8"">16446376886</Timestamp><Current dt:dt=""r8"">0</Current><DateUtc dt:dt=""string"">2016-12-22T08:12:29Z</DateUtc></FrequencyChange></FrequencyChanges></Clock>\n",2016-12-22 16:12,74.894,1,-732777191,12-22-2016,16:12:29,8:12:29,55,had,2,5,54,,,,,,,0,,-999999,20,271661,1,2183,273844,,,,,,,,,aexppro111,block1,nv audio/hawed.wav
nv,14,1,"<?xml version=""1.0""?>\n<Clock xmlns:dt=""urn:schemas-microsoft-com:datatypes""><Description dt:dt=""string"">E-Prime Primary Realtime Clock</Description><StartTime><Timestamp dt:dt=""int"">0</Timestamp><DateUtc dt:dt=""string"">2016-12-22T08:12:29Z</DateUtc></StartTime><FrequencyChanges><FrequencyChange><Frequency dt:dt=""r8"">3579545</Frequency><Timestamp dt:dt=""r8"">16446376886</Timestamp><Current dt:dt=""r8"">0</Current><DateUtc dt:dt=""string"">2016-12-22T08:12:29Z</DateUtc></FrequencyChange></FrequencyChanges></Clock>\n",2016-12-22 16:12,74.894,1,-732777191,12-22-2016,16:12:29,8:12:29,56,had,11,5,55,,,,,,,0,,-999999,21,274372,1,2637,277009,,,,,,,,,aexppro111,block1,nv audio/hud.wav
nv,14,1,"<?xml version=""1.0""?>\n<Clock xmlns:dt=""urn:schemas-microsoft-com:datatypes""><Description dt:dt=""string"">E-Prime Primary Realtime Clock</Description><StartTime><Timestamp dt:dt=""int"">0</Timestamp><DateUtc dt:dt=""string"">2016-12-22T08:12:29Z</DateUtc></StartTime><FrequencyChanges><FrequencyChange><Frequency dt:dt=""r8"">3579545</Frequency><Timestamp dt:dt=""r8"">16446376886</Timestamp><Current dt:dt=""r8"">0</Current><DateUtc dt:dt=""string"">2016-12-22T08:12:29Z</DateUtc></FrequencyChange></FrequencyChanges></Clock>\n",2016-12-22 16:12,74.894,1,-732777191,12-22-2016,16:12:29,8:12:29,57,hud,3,5,56,,,,,,,0,,-999999,20,277536,1,1326,278862,,,,,,,,,aexppro111,block1,nv audio/hayed.wav
nv,14,1,"<?xml version=""1.0""?>\n<Clock xmlns:dt=""urn:schemas-microsoft-com:datatypes""><Description dt:dt=""string"">E-Prime Primary Realtime Clock</Description><StartTime><Timestamp dt:dt=""int"">0</Timestamp><DateUtc dt:dt=""string"">2016-12-22T08:12:29Z</DateUtc></StartTime><FrequencyChanges><FrequencyChange><Frequency dt:dt=""r8"">3579545</Frequency><Timestamp dt:dt=""r8"">16446376886</Timestamp><Current dt:dt=""r8"">0</Current><DateUtc dt:dt=""string"">2016-12-22T08:12:29Z</DateUtc></FrequencyChange></FrequencyChanges></Clock>\n",2016-12-22 16:12,74.894,1,-732777191,12-22-2016,16:12:29,8:12:29,58,hood,12,5,57,,,,,,,0,,-999999,20,279392,1,2268,281660,,,,,,,,,aexppro111,block1,nv audio/whod.wav
nv,14,1,"<?xml version=""1.0""?>\n<Clock xmlns:dt=""urn:schemas-microsoft-com:datatypes""><Description dt:dt=""string"">E-Prime Primary Realtime Clock</Description><StartTime><Timestamp dt:dt=""int"">0</Timestamp><DateUtc dt:dt=""string"">2016-12-22T08:12:29Z</DateUtc></StartTime><FrequencyChanges><FrequencyChange><Frequency dt:dt=""r8"">3579545</Frequency><Timestamp dt:dt=""r8"">16446376886</Timestamp><Current dt:dt=""r8"">0</Current><DateUtc dt:dt=""string"">2016-12-22T08:12:29Z</DateUtc></FrequencyChange></FrequencyChanges></Clock>\n",2016-12-22 16:12,74.894,1,-732777191,12-22-2016,16:12:29,8:12:29,59,hid,1,5,58,,,,,,,0,,-999999,34,282196,1,2700,284896,,,,,,,,,aexppro111,block1,nv audio/had.wav
nv,14,1,"<?xml version=""1.0""?>\n<Clock xmlns:dt=""urn:schemas-microsoft-com:datatypes""><Description dt:dt=""string"">E-Prime Primary Realtime Clock</Description><StartTime><Timestamp dt:dt=""int"">0</Timestamp><DateUtc dt:dt=""string"">2016-12-22T08:12:29Z</DateUtc></StartTime><FrequencyChanges><FrequencyChange><Frequency dt:dt=""r8"">3579545</Frequency><Timestamp dt:dt=""r8"">16446376886</Timestamp><Current dt:dt=""r8"">0</Current><DateUtc dt:dt=""string"">2016-12-22T08:12:29Z</DateUtc></FrequencyChange></FrequencyChanges></Clock>\n",2016-12-22 16:12,74.894,1,-732777191,12-22-2016,16:12:29,8:12:29,60,heed,6,5,59,,,,,,,0,,-999999,20,285427,1,1273,286700,,,,,,,,,aexppro111,block1,nv audio/heed.wav
nv,14,1,"<?xml version=""1.0""?>\n<Clock xmlns:dt=""urn:schemas-microsoft-com:datatypes""><Description dt:dt=""string"">E-Prime Primary Realtime Clock</Description><StartTime><Timestamp dt:dt=""int"">0</Timestamp><DateUtc dt:dt=""string"">2016-12-22T08:12:29Z</DateUtc></StartTime><FrequencyChanges><FrequencyChange><Frequency dt:dt=""r8"">3579545</Frequency><Timestamp dt:dt=""r8"">16446376886</Timestamp><Current dt:dt=""r8"">0</Current><DateUtc dt:dt=""string"">2016-12-22T08:12:29Z</DateUtc></FrequencyChange></FrequencyChanges></Clock>\n",2016-12-22 16:12,74.894,1,-732777191,12-22-2016,16:12:29,8:12:29,61,head,7,5,60,,,,,,,0,,-999999,34,287243,1,1860,289103,,,,,,,,,aexppro111,block1,nv audio/hid.wav
nv,14,1,"<?xml version=""1.0""?>\n<Clock xmlns:dt=""urn:schemas-microsoft-com:datatypes""><Description dt:dt=""string"">E-Prime Primary Realtime Clock</Description><StartTime><Timestamp dt:dt=""int"">0</Timestamp><DateUtc dt:dt=""string"">2016-12-22T08:12:29Z</DateUtc></StartTime><FrequencyChanges><FrequencyChange><Frequency dt:dt=""r8"">3579545</Frequency><Timestamp dt:dt=""r8"">16446376886</Timestamp><Current dt:dt=""r8"">0</Current><DateUtc dt:dt=""string"">2016-12-22T08:12:29Z</DateUtc></FrequencyChange></FrequencyChanges></Clock>\n",2016-12-22 16:12,74.894,1,-732777191,12-22-2016,16:12:29,8:12:29,62,hid,6,6,61,,,,,,,0,,-999999,47,289660,1,4123,293783,,,,,,,,,aexppro111,block1,nv audio/heed.wav
nv,14,1,"<?xml version=""1.0""?>\n<Clock xmlns:dt=""urn:schemas-microsoft-com:datatypes""><Description dt:dt=""string"">E-Prime Primary Realtime Clock</Description><StartTime><Timestamp dt:dt=""int"">0</Timestamp><DateUtc dt:dt=""string"">2016-12-22T08:12:29Z</DateUtc></StartTime><FrequencyChanges><FrequencyChange><Frequency dt:dt=""r8"">3579545</Frequency><Timestamp dt:dt=""r8"">16446376886</Timestamp><Current dt:dt=""r8"">0</Current><DateUtc dt:dt=""string"">2016-12-22T08:12:29Z</DateUtc></FrequencyChange></FrequencyChanges></Clock>\n",2016-12-22 16:12,74.894,1,-732777191,12-22-2016,16:12:29,8:12:29,63,hoed,9,6,62,,,,,,,0,,-999999,34,294320,1,1949,296269,,,,,,,,,aexppro111,block1,nv audio/hoed.wav
nv,14,1,"<?xml version=""1.0""?>\n<Clock xmlns:dt=""urn:schemas-microsoft-com:datatypes""><Description dt:dt=""string"">E-Prime Primary Realtime Clock</Description><StartTime><Timestamp dt:dt=""int"">0</Timestamp><DateUtc dt:dt=""string"">2016-12-22T08:12:29Z</DateUtc></StartTime><FrequencyChanges><FrequencyChange><Frequency dt:dt=""r8"">3579545</Frequency><Timestamp dt:dt=""r8"">16446376886</Timestamp><Current dt:dt=""r8"">0</Current><DateUtc dt:dt=""string"">2016-12-22T08:12:29Z</DateUtc></FrequencyChange></FrequencyChanges></Clock>\n",2016-12-22 16:12,74.894,1,-732777191,12-22-2016,16:12:29,8:12:29,64,hod,2,6,63,,,,,,,0,,-999999,20,296803,1,2953,299756,,,,,,,,,aexppro111,block1,nv audio/hawed.wav
nv,14,1,"<?xml version=""1.0""?>\n<Clock xmlns:dt=""urn:schemas-microsoft-com:datatypes""><Description dt:dt=""string"">E-Prime Primary Realtime Clock</Description><StartTime><Timestamp dt:dt=""int"">0</Timestamp><DateUtc dt:dt=""string"">2016-12-22T08:12:29Z</DateUtc></StartTime><FrequencyChanges><FrequencyChange><Frequency dt:dt=""r8"">3579545</Frequency><Timestamp dt:dt=""r8"">16446376886</Timestamp><Current dt:dt=""r8"">0</Current><DateUtc dt:dt=""string"">2016-12-22T08:12:29Z</DateUtc></FrequencyChange></FrequencyChanges></Clock>\n",2016-12-22 16:12,74.894,1,-732777191,12-22-2016,16:12:29,8:12:29,65,whod,12,6,64,,,,,,,0,,-999999,34,300302,1,1478,301780,,,,,,,,,aexppro111,block1,nv audio/whod.wav
nv,14,1,"<?xml version=""1.0""?>\n<Clock xmlns:dt=""urn:schemas-microsoft-com:datatypes""><Description dt:dt=""string"">E-Prime Primary Realtime Clock</Description><StartTime><Timestamp dt:dt=""int"">0</Timestamp><DateUtc dt:dt=""string"">2016-12-22T08:12:29Z</DateUtc></StartTime><FrequencyChanges><FrequencyChange><Frequency dt:dt=""r8"">3579545</Frequency><Timestamp dt:dt=""r8"">16446376886</Timestamp><Current dt:dt=""r8"">0</Current><DateUtc dt:dt=""string"">2016-12-22T08:12:29Z</DateUtc></FrequencyChange></FrequencyChanges></Clock>\n",2016-12-22 16:12,74.894,1,-732777191,12-22-2016,16:12:29,8:12:29,66,hayed,11,6,65,,,,,,,0,,-999999,34,302318,1,1997,304315,,,,,,,,,aexppro111,block1,nv audio/hud.wav
nv,14,1,"<?xml version=""1.0""?>\n<Clock xmlns:dt=""urn:schemas-microsoft-com:datatypes""><Description dt:dt=""string"">E-Prime Primary Realtime Clock</Description><StartTime><Timestamp dt:dt=""int"">0</Timestamp><DateUtc dt:dt=""string"">2016-12-22T08:12:29Z</DateUtc></StartTime><FrequencyChanges><FrequencyChange><Frequency dt:dt=""r8"">3579545</Frequency><Timestamp dt:dt=""r8"">16446376886</Timestamp><Current dt:dt=""r8"">0</Current><DateUtc dt:dt=""string"">2016-12-22T08:12:29Z</DateUtc></FrequencyChange></FrequencyChanges></Clock>\n",2016-12-22 16:12,74.894,1,-732777191,12-22-2016,16:12:29,8:12:29,67,hoed,8,6,66,,,,,,,0,,-999999,20,304841,1,1997,306838,,,,,,,,,aexppro111,block1,nv audio/hod.wav
nv,14,1,"<?xml version=""1.0""?>\n<Clock xmlns:dt=""urn:schemas-microsoft-com:datatypes""><Description dt:dt=""string"">E-Prime Primary Realtime Clock</Description><StartTime><Timestamp dt:dt=""int"">0</Timestamp><DateUtc dt:dt=""string"">2016-12-22T08:12:29Z</DateUtc></StartTime><FrequencyChanges><FrequencyChange><Frequency dt:dt=""r8"">3579545</Frequency><Timestamp dt:dt=""r8"">16446376886</Timestamp><Current dt:dt=""r8"">0</Current><DateUtc dt:dt=""string"">2016-12-22T08:12:29Z</DateUtc></FrequencyChange></FrequencyChanges></Clock>\n",2016-12-22 16:12,74.894,1,-732777191,12-22-2016,16:12:29,8:12:29,68,had,7,6,67,,,,,,,0,,-999999,21,307365,1,2269,309634,,,,,,,,,aexppro111,block1,nv audio/hid.wav
nv,14,1,"<?xml version=""1.0""?>\n<Clock xmlns:dt=""urn:schemas-microsoft-com:datatypes""><Description dt:dt=""string"">E-Prime Primary Realtime Clock</Description><StartTime><Timestamp dt:dt=""int"">0</Timestamp><DateUtc dt:dt=""string"">2016-12-22T08:12:29Z</DateUtc></StartTime><FrequencyChanges><FrequencyChange><Frequency dt:dt=""r8"">3579545</Frequency><Timestamp dt:dt=""r8"">16446376886</Timestamp><Current dt:dt=""r8"">0</Current><DateUtc dt:dt=""string"">2016-12-22T08:12:29Z</DateUtc></FrequencyChange></FrequencyChanges></Clock>\n",2016-12-22 16:12,74.894,1,-732777191,12-22-2016,16:12:29,8:12:29,69,hud,3,6,68,,,,,,,0,,-999999,21,310169,1,1431,311600,,,,,,,,,aexppro111,block1,nv audio/hayed.wav
nv,14,1,"<?xml version=""1.0""?>\n<Clock xmlns:dt=""urn:schemas-microsoft-com:datatypes""><Description dt:dt=""string"">E-Prime Primary Realtime Clock</Description><StartTime><Timestamp dt:dt=""int"">0</Timestamp><DateUtc dt:dt=""string"">2016-12-22T08:12:29Z</DateUtc></StartTime><FrequencyChanges><FrequencyChange><Frequency dt:dt=""r8"">3579545</Frequency><Timestamp dt:dt=""r8"">16446376886</Timestamp><Current dt:dt=""r8"">0</Current><DateUtc dt:dt=""string"">2016-12-22T08:12:29Z</DateUtc></FrequencyChange></FrequencyChanges></Clock>\n",2016-12-22 16:12,74.894,1,-732777191,12-22-2016,16:12:29,8:12:29,70,whod,10,6,69,,,,,,,0,,-999999,21,312132,1,2796,314928,,,,,,,,,aexppro111,block1,nv audio/hood.wav
nv,14,1,"<?xml version=""1.0""?>\n<Clock xmlns:dt=""urn:schemas-microsoft-com:datatypes""><Description dt:dt=""string"">E-Prime Primary Realtime Clock</Description><StartTime><Timestamp dt:dt=""int"">0</Timestamp><DateUtc dt:dt=""string"">2016-12-22T08:12:29Z</DateUtc></StartTime><FrequencyChanges><FrequencyChange><Frequency dt:dt=""r8"">3579545</Frequency><Timestamp dt:dt=""r8"">16446376886</Timestamp><Current dt:dt=""r8"">0</Current><DateUtc dt:dt=""string"">2016-12-22T08:12:29Z</DateUtc></FrequencyChange></FrequencyChanges></Clock>\n",2016-12-22 16:12,74.894,1,-732777191,12-22-2016,16:12:29,8:12:29,71,hayed,4,6,70,,,,,,,0,,-999999,20,315456,1,1362,316818,,,,,,,,,aexppro111,block1,nv audio/head.wav
nv,14,1,"<?xml version=""1.0""?>\n<Clock xmlns:dt=""urn:schemas-microsoft-com:datatypes""><Description dt:dt=""string"">E-Prime Primary Realtime Clock</Description><StartTime><Timestamp dt:dt=""int"">0</Timestamp><DateUtc dt:dt=""string"">2016-12-22T08:12:29Z</DateUtc></StartTime><FrequencyChanges><FrequencyChange><Frequency dt:dt=""r8"">3579545</Frequency><Timestamp dt:dt=""r8"">16446376886</Timestamp><Current dt:dt=""r8"">0</Current><DateUtc dt:dt=""string"">2016-12-22T08:12:29Z</DateUtc></FrequencyChange></FrequencyChanges></Clock>\n",2016-12-22 16:12,74.894,1,-732777191,12-22-2016,16:12:29,8:12:29,72,hayed,1,6,71,,,,,,,0,,-999999,47,317379,1,2119,319498,,,,,,,,,aexppro111,block1,nv audio/had.wav
nv,14,1,"<?xml version=""1.0""?>\n<Clock xmlns:dt=""urn:schemas-microsoft-com:datatypes""><Description dt:dt=""string"">E-Prime Primary Realtime Clock</Description><StartTime><Timestamp dt:dt=""int"">0</Timestamp><DateUtc dt:dt=""string"">2016-12-22T08:12:29Z</DateUtc></StartTime><FrequencyChanges><FrequencyChange><Frequency dt:dt=""r8"">3579545</Frequency><Timestamp dt:dt=""r8"">16446376886</Timestamp><Current dt:dt=""r8"">0</Current><DateUtc dt:dt=""string"">2016-12-22T08:12:29Z</DateUtc></FrequencyChange></FrequencyChanges></Clock>\n",2016-12-22 16:12,74.894,1,-732777191,12-22-2016,16:12:29,8:12:29,73,heard,5,6,72,,,,,,,0,,-999999,21,320023,1,933,320956,,,,,,,,,aexppro111,block1,nv audio/heard.wav
nv,14,1,"<?xml version=""1.0""?>\n<Clock xmlns:dt=""urn:schemas-microsoft-com:datatypes""><Description dt:dt=""string"">E-Prime Primary Realtime Clock</Description><StartTime><Timestamp dt:dt=""int"">0</Timestamp><DateUtc dt:dt=""string"">2016-12-22T08:12:29Z</DateUtc></StartTime><FrequencyChanges><FrequencyChange><Frequency dt:dt=""r8"">3579545</Frequency><Timestamp dt:dt=""r8"">16446376886</Timestamp><Current dt:dt=""r8"">0</Current><DateUtc dt:dt=""string"">2016-12-22T08:12:29Z</DateUtc></FrequencyChange></FrequencyChanges></Clock>\n",2016-12-22 16:12,74.894,1,-732777191,12-22-2016,16:12:29,8:12:29,74,hood,9,7,73,,,,,,,0,,-999999,34,321492,1,1138,322630,,,,,,,,,aexppro111,block1,nv audio/hoed.wav
nv,14,1,"<?xml version=""1.0""?>\n<Clock xmlns:dt=""urn:schemas-microsoft-com:datatypes""><Description dt:dt=""string"">E-Prime Primary Realtime Clock</Description><StartTime><Timestamp dt:dt=""int"">0</Timestamp><DateUtc dt:dt=""string"">2016-12-22T08:12:29Z</DateUtc></StartTime><FrequencyChanges><FrequencyChange><Frequency dt:dt=""r8"">3579545</Frequency><Timestamp dt:dt=""r8"">16446376886</Timestamp><Current dt:dt=""r8"">0</Current><DateUtc dt:dt=""string"">2016-12-22T08:12:29Z</DateUtc></FrequencyChange></FrequencyChanges></Clock>\n",2016-12-22 16:12,74.894,1,-732777191,12-22-2016,16:12:29,8:12:29,75,hid,6,7,74,,,,,,,0,,-999999,34,323174,1,2545,325719,,,,,,,,,aexppro111,block1,nv audio/heed.wav
nv,14,1,"<?xml version=""1.0""?>\n<Clock xmlns:dt=""urn:schemas-microsoft-com:datatypes""><Description dt:dt=""string"">E-Prime Primary Realtime Clock</Description><StartTime><Timestamp dt:dt=""int"">0</Timestamp><DateUtc dt:dt=""string"">2016-12-22T08:12:29Z</DateUtc></StartTime><FrequencyChanges><FrequencyChange><Frequency dt:dt=""r8"">3579545</Frequency><Timestamp dt:dt=""r8"">16446376886</Timestamp><Current dt:dt=""r8"">0</Current><DateUtc dt:dt=""string"">2016-12-22T08:12:29Z</DateUtc></FrequencyChange></FrequencyChanges></Clock>\n",2016-12-22 16:12,74.894,1,-732777191,12-22-2016,16:12:29,8:12:29,76,hood,12,7,75,,,,,,,0,,-999999,34,326258,1,1759,328017,,,,,,,,,aexppro111,block1,nv audio/whod.wav
nv,14,1,"<?xml version=""1.0""?>\n<Clock xmlns:dt=""urn:schemas-microsoft-com:datatypes""><Description dt:dt=""string"">E-Prime Primary Realtime Clock</Description><StartTime><Timestamp dt:dt=""int"">0</Timestamp><DateUtc dt:dt=""string"">2016-12-22T08:12:29Z</DateUtc></StartTime><FrequencyChanges><FrequencyChange><Frequency dt:dt=""r8"">3579545</Frequency><Timestamp dt:dt=""r8"">16446376886</Timestamp><Current dt:dt=""r8"">0</Current><DateUtc dt:dt=""string"">2016-12-22T08:12:29Z</DateUtc></FrequencyChange></FrequencyChanges></Clock>\n",2016-12-22 16:12,74.894,1,-732777191,12-22-2016,16:12:29,8:12:29,77,hid,1,7,76,,,,,,,0,,-999999,34,328555,1,2670,331225,,,,,,,,,aexppro111,block1,nv audio/had.wav
nv,14,1,"<?xml version=""1.0""?>\n<Clock xmlns:dt=""urn:schemas-microsoft-com:datatypes""><Description dt:dt=""string"">E-Prime Primary Realtime Clock</Description><StartTime><Timestamp dt:dt=""int"">0</Timestamp><DateUtc dt:dt=""string"">2016-12-22T08:12:29Z</DateUtc></StartTime><FrequencyChanges><FrequencyChange><Frequency dt:dt=""r8"">3579545</Frequency><Timestamp dt:dt=""r8"">16446376886</Timestamp><Current dt:dt=""r8"">0</Current><DateUtc dt:dt=""string"">2016-12-22T08:12:29Z</DateUtc></FrequencyChange></FrequencyChanges></Clock>\n",2016-12-22 16:12,74.894,1,-732777191,12-22-2016,16:12:29,8:12:29,78,hood,10,7,77,,,,,,,0,,-999999,34,331773,1,1779,333552,,,,,,,,,aexppro111,block1,nv audio/hood.wav
nv,14,1,"<?xml version=""1.0""?>\n<Clock xmlns:dt=""urn:schemas-microsoft-com:datatypes""><Description dt:dt=""string"">E-Prime Primary Realtime Clock</Description><StartTime><Timestamp dt:dt=""int"">0</Timestamp><DateUtc dt:dt=""string"">2016-12-22T08:12:29Z</DateUtc></StartTime><FrequencyChanges><FrequencyChange><Frequency dt:dt=""r8"">3579545</Frequency><Timestamp dt:dt=""r8"">16446376886</Timestamp><Current dt:dt=""r8"">0</Current><DateUtc dt:dt=""string"">2016-12-22T08:12:29Z</DateUtc></FrequencyChange></FrequencyChanges></Clock>\n",2016-12-22 16:12,74.894,1,-732777191,12-22-2016,16:12:29,8:12:29,79,head,8,7,78,,,,,,,0,,-999999,21,334083,1,3457,337540,,,,,,,,,aexppro111,block1,nv audio/hod.wav
nv,14,1,"<?xml version=""1.0""?>\n<Clock xmlns:dt=""urn:schemas-microsoft-com:datatypes""><Description dt:dt=""string"">E-Prime Primary Realtime Clock</Description><StartTime><Timestamp dt:dt=""int"">0</Timestamp><DateUtc dt:dt=""string"">2016-12-22T08:12:29Z</DateUtc></StartTime><FrequencyChanges><FrequencyChange><Frequency dt:dt=""r8"">3579545</Frequency><Timestamp dt:dt=""r8"">16446376886</Timestamp><Current dt:dt=""r8"">0</Current><DateUtc dt:dt=""string"">2016-12-22T08:12:29Z</DateUtc></FrequencyChange></FrequencyChanges></Clock>\n",2016-12-22 16:12,74.894,1,-732777191,12-22-2016,16:12:29,8:12:29,80,hayed,2,7,79,,,,,,,0,,-999999,21,338075,1,1944,340019,,,,,,,,,aexppro111,block1,nv audio/hawed.wav
nv,14,1,"<?xml version=""1.0""?>\n<Clock xmlns:dt=""urn:schemas-microsoft-com:datatypes""><Description dt:dt=""string"">E-Prime Primary Realtime Clock</Description><StartTime><Timestamp dt:dt=""int"">0</Timestamp><DateUtc dt:dt=""string"">2016-12-22T08:12:29Z</DateUtc></StartTime><FrequencyChanges><FrequencyChange><Frequency dt:dt=""r8"">3579545</Frequency><Timestamp dt:dt=""r8"">16446376886</Timestamp><Current dt:dt=""r8"">0</Current><DateUtc dt:dt=""string"">2016-12-22T08:12:29Z</DateUtc></FrequencyChange></FrequencyChanges></Clock>\n",2016-12-22 16:12,74.894,1,-732777191,12-22-2016,16:12:29,8:12:29,81,had,3,7,80,,,,,,,0,,-999999,21,340545,1,2048,342593,,,,,,,,,aexppro111,block1,nv audio/hayed.wav
nv,14,1,"<?xml version=""1.0""?>\n<Clock xmlns:dt=""urn:schemas-microsoft-com:datatypes""><Description dt:dt=""string"">E-Prime Primary Realtime Clock</Description><StartTime><Timestamp dt:dt=""int"">0</Timestamp><DateUtc dt:dt=""string"">2016-12-22T08:12:29Z</DateUtc></StartTime><FrequencyChanges><FrequencyChange><Frequency dt:dt=""r8"">3579545</Frequency><Timestamp dt:dt=""r8"">16446376886</Timestamp><Current dt:dt=""r8"">0</Current><DateUtc dt:dt=""string"">2016-12-22T08:12:29Z</DateUtc></FrequencyChange></FrequencyChanges></Clock>\n",2016-12-22 16:12,74.894,1,-732777191,12-22-2016,16:12:29,8:12:29,82,hud,7,7,81,,,,,,,0,,-999999,21,343122,1,4112,347234,,,,,,,,,aexppro111,block1,nv audio/hid.wav
nv,14,1,"<?xml version=""1.0""?>\n<Clock xmlns:dt=""urn:schemas-microsoft-com:datatypes""><Description dt:dt=""string"">E-Prime Primary Realtime Clock</Description><StartTime><Timestamp dt:dt=""int"">0</Timestamp><DateUtc dt:dt=""string"">2016-12-22T08:12:29Z</DateUtc></StartTime><FrequencyChanges><FrequencyChange><Frequency dt:dt=""r8"">3579545</Frequency><Timestamp dt:dt=""r8"">16446376886</Timestamp><Current dt:dt=""r8"">0</Current><DateUtc dt:dt=""string"">2016-12-22T08:12:29Z</DateUtc></FrequencyChange></FrequencyChanges></Clock>\n",2016-12-22 16:12,74.894,1,-732777191,12-22-2016,16:12:29,8:12:29,83,heard,5,7,82,,,,,,,0,,-999999,21,347769,1,1078,348847,,,,,,,,,aexppro111,block1,nv audio/heard.wav
nv,14,1,"<?xml version=""1.0""?>\n<Clock xmlns:dt=""urn:schemas-microsoft-com:datatypes""><Description dt:dt=""string"">E-Prime Primary Realtime Clock</Description><StartTime><Timestamp dt:dt=""int"">0</Timestamp><DateUtc dt:dt=""string"">2016-12-22T08:12:29Z</DateUtc></StartTime><FrequencyChanges><FrequencyChange><Frequency dt:dt=""r8"">3579545</Frequency><Timestamp dt:dt=""r8"">16446376886</Timestamp><Current dt:dt=""r8"">0</Current><DateUtc dt:dt=""string"">2016-12-22T08:12:29Z</DateUtc></FrequencyChange></FrequencyChanges></Clock>\n",2016-12-22 16:12,74.894,1,-732777191,12-22-2016,16:12:29,8:12:29,84,hoed,4,7,83,,,,,,,0,,-999999,34,349384,1,1934,351318,,,,,,,,,aexppro111,block1,nv audio/head.wav
nv,14,1,"<?xml version=""1.0""?>\n<Clock xmlns:dt=""urn:schemas-microsoft-com:datatypes""><Description dt:dt=""string"">E-Prime Primary Realtime Clock</Description><StartTime><Timestamp dt:dt=""int"">0</Timestamp><DateUtc dt:dt=""string"">2016-12-22T08:12:29Z</DateUtc></StartTime><FrequencyChanges><FrequencyChange><Frequency dt:dt=""r8"">3579545</Frequency><Timestamp dt:dt=""r8"">16446376886</Timestamp><Current dt:dt=""r8"">0</Current><DateUtc dt:dt=""string"">2016-12-22T08:12:29Z</DateUtc></FrequencyChange></FrequencyChanges></Clock>\n",2016-12-22 16:12,74.894,1,-732777191,12-22-2016,16:12:29,8:12:29,85,hawed,11,7,84,,,,,,,0,,-999999,21,351841,1,2338,354179,,,,,,,,,aexppro111,block1,nv audio/hud.wav
nv,14,1,"<?xml version=""1.0""?>\n<Clock xmlns:dt=""urn:schemas-microsoft-com:datatypes""><Description dt:dt=""string"">E-Prime Primary Realtime Clock</Description><StartTime><Timestamp dt:dt=""int"">0</Timestamp><DateUtc dt:dt=""string"">2016-12-22T08:12:29Z</DateUtc></StartTime><FrequencyChanges><FrequencyChange><Frequency dt:dt=""r8"">3579545</Frequency><Timestamp dt:dt=""r8"">16446376886</Timestamp><Current dt:dt=""r8"">0</Current><DateUtc dt:dt=""string"">2016-12-22T08:12:29Z</DateUtc></FrequencyChange></FrequencyChanges></Clock>\n",2016-12-22 16:12,74.894,1,-732777191,12-22-2016,16:12:29,8:12:29,86,hud,3,8,85,,,,,,,0,,-999999,47,354738,1,2416,357154,,,,,,,,,aexppro111,block1,nv audio/hayed.wav
nv,14,1,"<?xml version=""1.0""?>\n<Clock xmlns:dt=""urn:schemas-microsoft-com:datatypes""><Description dt:dt=""string"">E-Prime Primary Realtime Clock</Description><StartTime><Timestamp dt:dt=""int"">0</Timestamp><DateUtc dt:dt=""string"">2016-12-22T08:12:29Z</DateUtc></StartTime><FrequencyChanges><FrequencyChange><Frequency dt:dt=""r8"">3579545</Frequency><Timestamp dt:dt=""r8"">16446376886</Timestamp><Current dt:dt=""r8"">0</Current><DateUtc dt:dt=""string"">2016-12-22T08:12:29Z</DateUtc></FrequencyChange></FrequencyChanges></Clock>\n",2016-12-22 16:12,74.894,1,-732777191,12-22-2016,16:12:29,8:12:29,87,hid,1,8,86,,,,,,,0,,-999999,20,357676,1,1674,359350,,,,,,,,,aexppro111,block1,nv audio/had.wav
nv,14,1,"<?xml version=""1.0""?>\n<Clock xmlns:dt=""urn:schemas-microsoft-com:datatypes""><Description dt:dt=""string"">E-Prime Primary Realtime Clock</Description><StartTime><Timestamp dt:dt=""int"">0</Timestamp><DateUtc dt:dt=""string"">2016-12-22T08:12:29Z</DateUtc></StartTime><FrequencyChanges><FrequencyChange><Frequency dt:dt=""r8"">3579545</Frequency><Timestamp dt:dt=""r8"">16446376886</Timestamp><Current dt:dt=""r8"">0</Current><DateUtc dt:dt=""string"">2016-12-22T08:12:29Z</DateUtc></FrequencyChange></FrequencyChanges></Clock>\n",2016-12-22 16:12,74.894,1,-732777191,12-22-2016,16:12:29,8:12:29,88,hoed,4,8,87,,,,,,,0,,-999999,21,359879,1,1851,361730,,,,,,,,,aexppro111,block1,nv audio/head.wav
nv,14,1,"<?xml version=""1.0""?>\n<Clock xmlns:dt=""urn:schemas-microsoft-com:datatypes""><Description dt:dt=""string"">E-Prime Primary Realtime Clock</Description><StartTime><Timestamp dt:dt=""int"">0</Timestamp><DateUtc dt:dt=""string"">2016-12-22T08:12:29Z</DateUtc></StartTime><FrequencyChanges><FrequencyChange><Frequency dt:dt=""r8"">3579545</Frequency><Timestamp dt:dt=""r8"">16446376886</Timestamp><Current dt:dt=""r8"">0</Current><DateUtc dt:dt=""string"">2016-12-22T08:12:29Z</DateUtc></FrequencyChange></FrequencyChanges></Clock>\n",2016-12-22 16:12,74.894,1,-732777191,12-22-2016,16:12:29,8:12:29,89,whod,2,8,88,,,,,,,0,,-999999,21,362256,1,2687,364943,,,,,,,,,aexppro111,block1,nv audio/hawed.wav
nv,14,1,"<?xml version=""1.0""?>\n<Clock xmlns:dt=""urn:schemas-microsoft-com:datatypes""><Description dt:dt=""string"">E-Prime Primary Realtime Clock</Description><StartTime><Timestamp dt:dt=""int"">0</Timestamp><DateUtc dt:dt=""string"">2016-12-22T08:12:29Z</DateUtc></StartTime><FrequencyChanges><FrequencyChange><Frequency dt:dt=""r8"">3579545</Frequency><Timestamp dt:dt=""r8"">16446376886</Timestamp><Current dt:dt=""r8"">0</Current><DateUtc dt:dt=""string"">2016-12-22T08:12:29Z</DateUtc></FrequencyChange></FrequencyChanges></Clock>\n",2016-12-22 16:12,74.894,1,-732777191,12-22-2016,16:12:29,8:12:29,90,hood,12,8,89,,,,,,,0,,-999999,21,365474,1,943,366417,,,,,,,,,aexppro111,block1,nv audio/whod.wav
nv,14,1,"<?xml version=""1.0""?>\n<Clock xmlns:dt=""urn:schemas-microsoft-com:datatypes""><Description dt:dt=""string"">E-Prime Primary Realtime Clock</Description><StartTime><Timestamp dt:dt=""int"">0</Timestamp><DateUtc dt:dt=""string"">2016-12-22T08:12:29Z</DateUtc></StartTime><FrequencyChanges><FrequencyChange><Frequency dt:dt=""r8"">3579545</Frequency><Timestamp dt:dt=""r8"">16446376886</Timestamp><Current dt:dt=""r8"">0</Current><DateUtc dt:dt=""string"">2016-12-22T08:12:29Z</DateUtc></FrequencyChange></FrequencyChanges></Clock>\n",2016-12-22 16:12,74.894,1,-732777191,12-22-2016,16:12:29,8:12:29,91,heard,5,8,90,,,,,,,0,,-999999,20,366942,1,1198,368140,,,,,,,,,aexppro111,block1,nv audio/heard.wav
nv,14,1,"<?xml version=""1.0""?>\n<Clock xmlns:dt=""urn:schemas-microsoft-com:datatypes""><Description dt:dt=""string"">E-Prime Primary Realtime Clock</Description><StartTime><Timestamp dt:dt=""int"">0</Timestamp><DateUtc dt:dt=""string"">2016-12-22T08:12:29Z</DateUtc></StartTime><FrequencyChanges><FrequencyChange><Frequency dt:dt=""r8"">3579545</Frequency><Timestamp dt:dt=""r8"">16446376886</Timestamp><Current dt:dt=""r8"">0</Current><DateUtc dt:dt=""string"">2016-12-22T08:12:29Z</DateUtc></FrequencyChange></FrequencyChanges></Clock>\n",2016-12-22 16:12,74.894,1,-732777191,12-22-2016,16:12:29,8:12:29,92,heed,6,8,91,,,,,,,0,,-999999,47,368691,1,2155,370846,,,,,,,,,aexppro111,block1,nv audio/heed.wav
nv,14,1,"<?xml version=""1.0""?>\n<Clock xmlns:dt=""urn:schemas-microsoft-com:datatypes""><Description dt:dt=""string"">E-Prime Primary Realtime Clock</Description><StartTime><Timestamp dt:dt=""int"">0</Timestamp><DateUtc dt:dt=""string"">2016-12-22T08:12:29Z</DateUtc></StartTime><FrequencyChanges><FrequencyChange><Frequency dt:dt=""r8"">3579545</Frequency><Timestamp dt:dt=""r8"">16446376886</Timestamp><Current dt:dt=""r8"">0</Current><DateUtc dt:dt=""string"">2016-12-22T08:12:29Z</DateUtc></FrequencyChange></FrequencyChanges></Clock>\n",2016-12-22 16:12,74.894,1,-732777191,12-22-2016,16:12:29,8:12:29,93,hayed,11,8,92,,,,,,,0,,-999999,21,371375,1,1220,372595,,,,,,,,,aexppro111,block1,nv audio/hud.wav
nv,14,1,"<?xml version=""1.0""?>\n<Clock xmlns:dt=""urn:schemas-microsoft-com:datatypes""><Description dt:dt=""string"">E-Prime Primary Realtime Clock</Description><StartTime><Timestamp dt:dt=""int"">0</Timestamp><DateUtc dt:dt=""string"">2016-12-22T08:12:29Z</DateUtc></StartTime><FrequencyChanges><FrequencyChange><Frequency dt:dt=""r8"">3579545</Frequency><Timestamp dt:dt=""r8"">16446376886</Timestamp><Current dt:dt=""r8"">0</Current><DateUtc dt:dt=""string"">2016-12-22T08:12:29Z</DateUtc></FrequencyChange></FrequencyChanges></Clock>\n",2016-12-22 16:12,74.894,1,-732777191,12-22-2016,16:12:29,8:12:29,94,hoed,8,8,93,,,,,,,0,,-999999,20,373124,1,2016,375140,,,,,,,,,aexppro111,block1,nv audio/hod.wav
nv,14,1,"<?xml version=""1.0""?>\n<Clock xmlns:dt=""urn:schemas-microsoft-com:datatypes""><Description dt:dt=""string"">E-Prime Primary Realtime Clock</Description><StartTime><Timestamp dt:dt=""int"">0</Timestamp><DateUtc dt:dt=""string"">2016-12-22T08:12:29Z</DateUtc></StartTime><FrequencyChanges><FrequencyChange><Frequency dt:dt=""r8"">3579545</Frequency><Timestamp dt:dt=""r8"">16446376886</Timestamp><Current dt:dt=""r8"">0</Current><DateUtc dt:dt=""string"">2016-12-22T08:12:29Z</DateUtc></FrequencyChange></FrequencyChanges></Clock>\n",2016-12-22 16:12,74.894,1,-732777191,12-22-2016,16:12:29,8:12:29,95,hood,9,8,94,,,,,,,0,,-999999,21,375675,1,903,376578,,,,,,,,,aexppro111,block1,nv audio/hoed.wav
nv,14,1,"<?xml version=""1.0""?>\n<Clock xmlns:dt=""urn:schemas-microsoft-com:datatypes""><Description dt:dt=""string"">E-Prime Primary Realtime Clock</Description><StartTime><Timestamp dt:dt=""int"">0</Timestamp><DateUtc dt:dt=""string"">2016-12-22T08:12:29Z</DateUtc></StartTime><FrequencyChanges><FrequencyChange><Frequency dt:dt=""r8"">3579545</Frequency><Timestamp dt:dt=""r8"">16446376886</Timestamp><Current dt:dt=""r8"">0</Current><DateUtc dt:dt=""string"">2016-12-22T08:12:29Z</DateUtc></FrequencyChange></FrequencyChanges></Clock>\n",2016-12-22 16:12,74.894,1,-732777191,12-22-2016,16:12:29,8:12:29,96,whod,10,8,95,,,,,,,0,,-999999,34,377117,1,2119,379236,,,,,,,,,aexppro111,block1,nv audio/hood.wav
nv,14,1,"<?xml version=""1.0""?>\n<Clock xmlns:dt=""urn:schemas-microsoft-com:datatypes""><Description dt:dt=""string"">E-Prime Primary Realtime Clock</Description><StartTime><Timestamp dt:dt=""int"">0</Timestamp><DateUtc dt:dt=""string"">2016-12-22T08:12:29Z</DateUtc></StartTime><FrequencyChanges><FrequencyChange><Frequency dt:dt=""r8"">3579545</Frequency><Timestamp dt:dt=""r8"">16446376886</Timestamp><Current dt:dt=""r8"">0</Current><DateUtc dt:dt=""string"">2016-12-22T08:12:29Z</DateUtc></FrequencyChange></FrequencyChanges></Clock>\n",2016-12-22 16:12,74.894,1,-732777191,12-22-2016,16:12:29,8:12:29,97,heed,7,8,96,,,,,,,0,,-999999,34,379774,1,1284,381058,,,,,,,,,aexppro111,block1,nv audio/hid.wav
nv,14,1,"<?xml version=""1.0""?>\n<Clock xmlns:dt=""urn:schemas-microsoft-com:datatypes""><Description dt:dt=""string"">E-Prime Primary Realtime Clock</Description><StartTime><Timestamp dt:dt=""int"">0</Timestamp><DateUtc dt:dt=""string"">2016-12-22T08:12:29Z</DateUtc></StartTime><FrequencyChanges><FrequencyChange><Frequency dt:dt=""r8"">3579545</Frequency><Timestamp dt:dt=""r8"">16446376886</Timestamp><Current dt:dt=""r8"">0</Current><DateUtc dt:dt=""string"">2016-12-22T08:12:29Z</DateUtc></FrequencyChange></FrequencyChanges></Clock>\n",2016-12-22 16:12,74.894,1,-732777191,12-22-2016,16:12:29,8:12:29,98,hoed,10,9,97,,,,,,,0,,-999999,34,381603,1,771,382374,,,,,,,,,aexppro111,block1,nv audio/hood.wav
nv,14,1,"<?xml version=""1.0""?>\n<Clock xmlns:dt=""urn:schemas-microsoft-com:datatypes""><Description dt:dt=""string"">E-Prime Primary Realtime Clock</Description><StartTime><Timestamp dt:dt=""int"">0</Timestamp><DateUtc dt:dt=""string"">2016-12-22T08:12:29Z</DateUtc></StartTime><FrequencyChanges><FrequencyChange><Frequency dt:dt=""r8"">3579545</Frequency><Timestamp dt:dt=""r8"">16446376886</Timestamp><Current dt:dt=""r8"">0</Current><DateUtc dt:dt=""string"">2016-12-22T08:12:29Z</DateUtc></FrequencyChange></FrequencyChanges></Clock>\n",2016-12-22 16:12,74.894,1,-732777191,12-22-2016,16:12:29,8:12:29,99,hayed,6,9,98,,,,,,,0,,-999999,34,382911,1,1137,384048,,,,,,,,,aexppro111,block1,nv audio/heed.wav
nv,14,1,"<?xml version=""1.0""?>\n<Clock xmlns:dt=""urn:schemas-microsoft-com:datatypes""><Description dt:dt=""string"">E-Prime Primary Realtime Clock</Description><StartTime><Timestamp dt:dt=""int"">0</Timestamp><DateUtc dt:dt=""string"">2016-12-22T08:12:29Z</DateUtc></StartTime><FrequencyChanges><FrequencyChange><Frequency dt:dt=""r8"">3579545</Frequency><Timestamp dt:dt=""r8"">16446376886</Timestamp><Current dt:dt=""r8"">0</Current><DateUtc dt:dt=""string"">2016-12-22T08:12:29Z</DateUtc></FrequencyChange></FrequencyChanges></Clock>\n",2016-12-22 16:12,74.894,1,-732777191,12-22-2016,16:12:29,8:12:29,100,hod,9,9,99,,,,,,,0,,-999999,20,384580,1,1759,386339,,,,,,,,,aexppro111,block1,nv audio/hoed.wav
nv,14,1,"<?xml version=""1.0""?>\n<Clock xmlns:dt=""urn:schemas-microsoft-com:datatypes""><Description dt:dt=""string"">E-Prime Primary Realtime Clock</Description><StartTime><Timestamp dt:dt=""int"">0</Timestamp><DateUtc dt:dt=""string"">2016-12-22T08:12:29Z</DateUtc></StartTime><FrequencyChanges><FrequencyChange><Frequency dt:dt=""r8"">3579545</Frequency><Timestamp dt:dt=""r8"">16446376886</Timestamp><Current dt:dt=""r8"">0</Current><DateUtc dt:dt=""string"">2016-12-22T08:12:29Z</DateUtc></FrequencyChange></FrequencyChanges></Clock>\n",2016-12-22 16:12,74.894,1,-732777191,12-22-2016,16:12:29,8:12:29,101,hawed,7,9,100,,,,,,,0,,-999999,21,386864,1,1463,388327,,,,,,,,,aexppro111,block1,nv audio/hid.wav
nv,14,1,"<?xml version=""1.0""?>\n<Clock xmlns:dt=""urn:schemas-microsoft-com:datatypes""><Description dt:dt=""string"">E-Prime Primary Realtime Clock</Description><StartTime><Timestamp dt:dt=""int"">0</Timestamp><DateUtc dt:dt=""string"">2016-12-22T08:12:29Z</DateUtc></StartTime><FrequencyChanges><FrequencyChange><Frequency dt:dt=""r8"">3579545</Frequency><Timestamp dt:dt=""r8"">16446376886</Timestamp><Current dt:dt=""r8"">0</Current><DateUtc dt:dt=""string"">2016-12-22T08:12:29Z</DateUtc></FrequencyChange></FrequencyChanges></Clock>\n",2016-12-22 16:12,74.894,1,-732777191,12-22-2016,16:12:29,8:12:29,102,hud,11,9,101,,,,,,,0,,-999999,35,388867,1,2138,391005,,,,,,,,,aexppro111,block1,nv audio/hud.wav
nv,14,1,"<?xml version=""1.0""?>\n<Clock xmlns:dt=""urn:schemas-microsoft-com:datatypes""><Description dt:dt=""string"">E-Prime Primary Realtime Clock</Description><StartTime><Timestamp dt:dt=""int"">0</Timestamp><DateUtc dt:dt=""string"">2016-12-22T08:12:29Z</DateUtc></StartTime><FrequencyChanges><FrequencyChange><Frequency dt:dt=""r8"">3579545</Frequency><Timestamp dt:dt=""r8"">16446376886</Timestamp><Current dt:dt=""r8"">0</Current><DateUtc dt:dt=""string"">2016-12-22T08:12:29Z</DateUtc></FrequencyChange></FrequencyChanges></Clock>\n",2016-12-22 16:12,74.894,1,-732777191,12-22-2016,16:12:29,8:12:29,103,hid,1,9,102,,,,,,,0,,-999999,21,391537,1,1474,393011,,,,,,,,,aexppro111,block1,nv audio/had.wav
nv,14,1,"<?xml version=""1.0""?>\n<Clock xmlns:dt=""urn:schemas-microsoft-com:datatypes""><Description dt:dt=""string"">E-Prime Primary Realtime Clock</Description><StartTime><Timestamp dt:dt=""int"">0</Timestamp><DateUtc dt:dt=""string"">2016-12-22T08:12:29Z</DateUtc></StartTime><FrequencyChanges><FrequencyChange><Frequency dt:dt=""r8"">3579545</Frequency><Timestamp dt:dt=""r8"">16446376886</Timestamp><Current dt:dt=""r8"">0</Current><DateUtc dt:dt=""string"">2016-12-22T08:12:29Z</DateUtc></FrequencyChange></FrequencyChanges></Clock>\n",2016-12-22 16:12,74.894,1,-732777191,12-22-2016,16:12:29,8:12:29,104,hoed,8,9,103,,,,,,,0,,-999999,47,393566,1,2252,395818,,,,,,,,,aexppro111,block1,nv audio/hod.wav
nv,14,1,"<?xml version=""1.0""?>\n<Clock xmlns:dt=""urn:schemas-microsoft-com:datatypes""><Description dt:dt=""string"">E-Prime Primary Realtime Clock</Description><StartTime><Timestamp dt:dt=""int"">0</Timestamp><DateUtc dt:dt=""string"">2016-12-22T08:12:29Z</DateUtc></StartTime><FrequencyChanges><FrequencyChange><Frequency dt:dt=""r8"">3579545</Frequency><Timestamp dt:dt=""r8"">16446376886</Timestamp><Current dt:dt=""r8"">0</Current><DateUtc dt:dt=""string"">2016-12-22T08:12:29Z</DateUtc></FrequencyChange></FrequencyChanges></Clock>\n",2016-12-22 16:12,74.894,1,-732777191,12-22-2016,16:12:29,8:12:29,105,hayed,4,9,104,,,,,,,0,,-999999,21,396344,1,914,397258,,,,,,,,,aexppro111,block1,nv audio/head.wav
nv,14,1,"<?xml version=""1.0""?>\n<Clock xmlns:dt=""urn:schemas-microsoft-com:datatypes""><Description dt:dt=""string"">E-Prime Primary Realtime Clock</Description><StartTime><Timestamp dt:dt=""int"">0</Timestamp><DateUtc dt:dt=""string"">2016-12-22T08:12:29Z</DateUtc></StartTime><FrequencyChanges><FrequencyChange><Frequency dt:dt=""r8"">3579545</Frequency><Timestamp dt:dt=""r8"">16446376886</Timestamp><Current dt:dt=""r8"">0</Current><DateUtc dt:dt=""string"">2016-12-22T08:12:29Z</DateUtc></FrequencyChange></FrequencyChanges></Clock>\n",2016-12-22 16:12,74.894,1,-732777191,12-22-2016,16:12:29,8:12:29,106,had,3,9,105,,,,,,,0,,-999999,21,397786,1,1291,399077,,,,,,,,,aexppro111,block1,nv audio/hayed.wav
nv,14,1,"<?xml version=""1.0""?>\n<Clock xmlns:dt=""urn:schemas-microsoft-com:datatypes""><Description dt:dt=""string"">E-Prime Primary Realtime Clock</Description><StartTime><Timestamp dt:dt=""int"">0</Timestamp><DateUtc dt:dt=""string"">2016-12-22T08:12:29Z</DateUtc></StartTime><FrequencyChanges><FrequencyChange><Frequency dt:dt=""r8"">3579545</Frequency><Timestamp dt:dt=""r8"">16446376886</Timestamp><Current dt:dt=""r8"">0</Current><DateUtc dt:dt=""string"">2016-12-22T08:12:29Z</DateUtc></FrequencyChange></FrequencyChanges></Clock>\n",2016-12-22 16:12,74.894,1,-732777191,12-22-2016,16:12:29,8:12:29,107,heard,2,9,106,,,,,,,0,,-999999,47,399628,1,2490,402118,,,,,,,,,aexppro111,block1,nv audio/hawed.wav
nv,14,1,"<?xml version=""1.0""?>\n<Clock xmlns:dt=""urn:schemas-microsoft-com:datatypes""><Description dt:dt=""string"">E-Prime Primary Realtime Clock</Description><StartTime><Timestamp dt:dt=""int"">0</Timestamp><DateUtc dt:dt=""string"">2016-12-22T08:12:29Z</DateUtc></StartTime><FrequencyChanges><FrequencyChange><Frequency dt:dt=""r8"">3579545</Frequency><Timestamp dt:dt=""r8"">16446376886</Timestamp><Current dt:dt=""r8"">0</Current><DateUtc dt:dt=""string"">2016-12-22T08:12:29Z</DateUtc></FrequencyChange></FrequencyChanges></Clock>\n",2016-12-22 16:12,74.894,1,-732777191,12-22-2016,16:12:29,8:12:29,108,whod,12,9,107,,,,,,,0,,-999999,21,402646,1,2746,405392,,,,,,,,,aexppro111,block1,nv audio/whod.wav
nv,14,1,"<?xml version=""1.0""?>\n<Clock xmlns:dt=""urn:schemas-microsoft-com:datatypes""><Description dt:dt=""string"">E-Prime Primary Realtime Clock</Description><StartTime><Timestamp dt:dt=""int"">0</Timestamp><DateUtc dt:dt=""string"">2016-12-22T08:12:29Z</DateUtc></StartTime><FrequencyChanges><FrequencyChange><Frequency dt:dt=""r8"">3579545</Frequency><Timestamp dt:dt=""r8"">16446376886</Timestamp><Current dt:dt=""r8"">0</Current><DateUtc dt:dt=""string"">2016-12-22T08:12:29Z</DateUtc></FrequencyChange></FrequencyChanges></Clock>\n",2016-12-22 16:12,74.894,1,-732777191,12-22-2016,16:12:29,8:12:29,109,heard,5,9,108,,,,,,,0,,-999999,35,405931,1,1054,406985,,,,,,,,,aexppro111,block1,nv audio/heard.wav
nv,14,1,"<?xml version=""1.0""?>\n<Clock xmlns:dt=""urn:schemas-microsoft-com:datatypes""><Description dt:dt=""string"">E-Prime Primary Realtime Clock</Description><StartTime><Timestamp dt:dt=""int"">0</Timestamp><DateUtc dt:dt=""string"">2016-12-22T08:12:29Z</DateUtc></StartTime><FrequencyChanges><FrequencyChange><Frequency dt:dt=""r8"">3579545</Frequency><Timestamp dt:dt=""r8"">16446376886</Timestamp><Current dt:dt=""r8"">0</Current><DateUtc dt:dt=""string"">2016-12-22T08:12:29Z</DateUtc></FrequencyChange></FrequencyChanges></Clock>\n",2016-12-22 16:12,74.894,1,-732777191,12-22-2016,16:12:29,8:12:29,110,hoed,2,10,109,,,,,,,0,,-999999,20,407519,1,1459,408978,,,,,,,,,aexppro111,block1,nv audio/hawed.wav
nv,14,1,"<?xml version=""1.0""?>\n<Clock xmlns:dt=""urn:schemas-microsoft-com:datatypes""><Description dt:dt=""string"">E-Prime Primary Realtime Clock</Description><StartTime><Timestamp dt:dt=""int"">0</Timestamp><DateUtc dt:dt=""string"">2016-12-22T08:12:29Z</DateUtc></StartTime><FrequencyChanges><FrequencyChange><Frequency dt:dt=""r8"">3579545</Frequency><Timestamp dt:dt=""r8"">16446376886</Timestamp><Current dt:dt=""r8"">0</Current><DateUtc dt:dt=""string"">2016-12-22T08:12:29Z</DateUtc></FrequencyChange></FrequencyChanges></Clock>\n",2016-12-22 16:12,74.894,1,-732777191,12-22-2016,16:12:29,8:12:29,111,heed,6,10,110,,,,,,,0,,-999999,34,409522,1,2978,412500,,,,,,,,,aexppro111,block1,nv audio/heed.wav
nv,14,1,"<?xml version=""1.0""?>\n<Clock xmlns:dt=""urn:schemas-microsoft-com:datatypes""><Description dt:dt=""string"">E-Prime Primary Realtime Clock</Description><StartTime><Timestamp dt:dt=""int"">0</Timestamp><DateUtc dt:dt=""string"">2016-12-22T08:12:29Z</DateUtc></StartTime><FrequencyChanges><FrequencyChange><Frequency dt:dt=""r8"">3579545</Frequency><Timestamp dt:dt=""r8"">16446376886</Timestamp><Current dt:dt=""r8"">0</Current><DateUtc dt:dt=""string"">2016-12-22T08:12:29Z</DateUtc></FrequencyChange></FrequencyChanges></Clock>\n",2016-12-22 16:12,74.894,1,-732777191,12-22-2016,16:12:29,8:12:29,112,whod,12,10,111,,,,,,,0,,-999999,21,413034,1,1509,414543,,,,,,,,,aexppro111,block1,nv audio/whod.wav
nv,14,1,"<?xml version=""1.0""?>\n<Clock xmlns:dt=""urn:schemas-microsoft-com:datatypes""><Description dt:dt=""string"">E-Prime Primary Realtime Clock</Description><StartTime><Timestamp dt:dt=""int"">0</Timestamp><DateUtc dt:dt=""string"">2016-12-22T08:12:29Z</DateUtc></StartTime><FrequencyChanges><FrequencyChange><Frequency dt:dt=""r8"">3579545</Frequency><Timestamp dt:dt=""r8"">16446376886</Timestamp><Current dt:dt=""r8"">0</Current><DateUtc dt:dt=""string"">2016-12-22T08:12:29Z</DateUtc></FrequencyChange></FrequencyChanges></Clock>\n",2016-12-22 16:12,74.894,1,-732777191,12-22-2016,16:12:29,8:12:29,113,hayed,1,10,112,,,,,,,0,,-999999,21,415077,1,922,415999,,,,,,,,,aexppro111,block1,nv audio/had.wav
nv,14,1,"<?xml version=""1.0""?>\n<Clock xmlns:dt=""urn:schemas-microsoft-com:datatypes""><Description dt:dt=""string"">E-Prime Primary Realtime Clock</Description><StartTime><Timestamp dt:dt=""int"">0</Timestamp><DateUtc dt:dt=""string"">2016-12-22T08:12:29Z</DateUtc></StartTime><FrequencyChanges><FrequencyChange><Frequency dt:dt=""r8"">3579545</Frequency><Timestamp dt:dt=""r8"">16446376886</Timestamp><Current dt:dt=""r8"">0</Current><DateUtc dt:dt=""string"">2016-12-22T08:12:29Z</DateUtc></FrequencyChange></FrequencyChanges></Clock>\n",2016-12-22 16:12,74.894,1,-732777191,12-22-2016,16:12:29,8:12:29,114,heard,8,10,113,,,,,,,0,,-999999,21,416532,1,2731,419263,,,,,,,,,aexppro111,block1,nv audio/hod.wav
nv,14,1,"<?xml version=""1.0""?>\n<Clock xmlns:dt=""urn:schemas-microsoft-com:datatypes""><Description dt:dt=""string"">E-Prime Primary Realtime Clock</Description><StartTime><Timestamp dt:dt=""int"">0</Timestamp><DateUtc dt:dt=""string"">2016-12-22T08:12:29Z</DateUtc></StartTime><FrequencyChanges><FrequencyChange><Frequency dt:dt=""r8"">3579545</Frequency><Timestamp dt:dt=""r8"">16446376886</Timestamp><Current dt:dt=""r8"">0</Current><DateUtc dt:dt=""string"">2016-12-22T08:12:29Z</DateUtc></FrequencyChange></FrequencyChanges></Clock>\n",2016-12-22 16:12,74.894,1,-732777191,12-22-2016,16:12:29,8:12:29,115,hoed,7,10,114,,,,,,,0,,-999999,48,419817,1,1217,421034,,,,,,,,,aexppro111,block1,nv audio/hid.wav
