ExperimentName,Subject,Session,Clock.Information,Clock.StartTimeOfDay,Display.RefreshRate,Group,RandomSeed,SessionDate,SessionTime,SessionTimeUtc,Block,answer1[Block],block1,block1.Cycle,block1.Sample,block2,block2.Cycle,block2.Sample,lx,lx.Cycle,lx.Sample,panel1111.ACC,panel1111.CRESP,panel1111.DurationError,panel1111.OnsetDelay,panel1111.OnsetTime,panel1111.RESP,panel1111.RT,panel1111.RTTime,panel1121.ACC,panel1121.CRESP,panel1121.DurationError,panel1121.OnsetDelay,panel1121.OnsetTime,panel1121.RESP,panel1121.RT,panel1121.RTTime,Procedure[Block],Running[Block],sound111,sound112,Trial,answer1[Trial],lxlist,lxlist.Cycle,lxlist.Sample,lxpanel1.ACC,lxpanel1.CRESP,lxpanel1.DurationError,lxpanel1.OnsetDelay,lxpanel1.OnsetTime,lxpanel1.RESP,lxpanel1.RT,lxpanel1.RTTime,lxsound,Procedure[Trial],Running[Trial]
nv,11,1,"<?xml version=""1.0""?>\n<Clock xmlns:dt=""urn:schemas-microsoft-com:datatypes""><Description dt:dt=""string"">E-Prime Primary Realtime Clock</Description><StartTime><Timestamp dt:dt=""int"">0</Timestamp><DateUtc dt:dt=""string"">2016-12-22T07:14:08Z</DateUtc></StartTime><FrequencyChanges><FrequencyChange><Frequency dt:dt=""r8"">3579545</Frequency><Timestamp dt:dt=""r8"">79208180474</Timestamp><Current dt:dt=""r8"">0</Current><DateUtc dt:dt=""string"">2016-12-22T07:14:08Z</DateUtc></FrequencyChange></FrequencyChanges></Clock>\n",2016-12-22 15:14,84.839,1,1899473078,12-22-2016,15:14:08,7:14:08,1,,,,,,,,1,1,1,,,,,,,,,,,,,,,,,lxProc,lx,,,1,lxhead,11,1,1,0,,-999999,55,71518,1,4076,75594,nv audio/hud.wav,lxpro1,lxlist
nv,11,1,"<?xml version=""1.0""?>\n<Clock xmlns:dt=""urn:schemas-microsoft-com:datatypes""><Description dt:dt=""string"">E-Prime Primary Realtime Clock</Description><StartTime><Timestamp dt:dt=""int"">0</Timestamp><DateUtc dt:dt=""string"">2016-12-22T07:14:08Z</DateUtc></StartTime><FrequencyChanges><FrequencyChange><Frequency dt:dt=""r8"">3579545</Frequency><Timestamp dt:dt=""r8"">79208180474</Timestamp><Current dt:dt=""r8"">0</Current><DateUtc dt:dt=""string"">2016-12-22T07:14:08Z</DateUtc></FrequencyChange></FrequencyChanges></Clock>\n",2016-12-22 15:14,84.839,1,1899473078,12-22-2016,15:14:08,7:14:08,1,,,,,,,,1,1,1,,,,,,,,,,,,,,,,,lxProc,lx,,,2,lxheard,1,1,2,0,,-999999,31,76139,1,4262,80401,nv audio/had.wav,lxpro1,lxlist
nv,11,1,"<?xml version=""1.0""?>\n<Clock xmlns:dt=""urn:schemas-microsoft-com:datatypes""><Description dt:dt=""string"">E-Prime Primary Realtime Clock</Description><StartTime><Timestamp dt:dt=""int"">0</Timestamp><DateUtc dt:dt=""string"">2016-12-22T07:14:08Z</DateUtc></StartTime><FrequencyChanges><FrequencyChange><Frequency dt:dt=""r8"">3579545</Frequency><Timestamp dt:dt=""r8"">79208180474</Timestamp><Current dt:dt=""r8"">0</Current><DateUtc dt:dt=""string"">2016-12-22T07:14:08Z</DateUtc></FrequencyChange></FrequencyChanges></Clock>\n",2016-12-22 15:14,84.839,1,1899473078,12-22-2016,15:14:08,7:14:08,1,,,,,,,,1,1,1,,,,,,,,,,,,,,,,,lxProc,lx,,,3,lxhood,12,1,3,0,,-999999,30,80936,1,4227,85163,nv audio/whod.wav,lxpro1,lxlist
nv,11,1,"<?xml version=""1.0""?>\n<Clock xmlns:dt=""urn:schemas-microsoft-com:datatypes""><Description dt:dt=""string"">E-Prime Primary Realtime Clock</Description><StartTime><Timestamp dt:dt=""int"">0</Timestamp><DateUtc dt:dt=""string"">2016-12-22T07:14:08Z</DateUtc></StartTime><FrequencyChanges><FrequencyChange><Frequency dt:dt=""r8"">3579545</Frequency><Timestamp dt:dt=""r8"">79208180474</Timestamp><Current dt:dt=""r8"">0</Current><DateUtc dt:dt=""string"">2016-12-22T07:14:08Z</DateUtc></FrequencyChange></FrequencyChanges></Clock>\n",2016-12-22 15:14,84.839,1,1899473078,12-22-2016,15:14:08,7:14:08,1,,,,,,,,1,1,1,,,,,,,,,,,,,,,,,lxProc,lx,,,4,lxhod,9,1,4,0,,-999999,54,85722,1,2982,88704,nv audio/hoed.wav,lxpro1,lxlist
nv,11,1,"<?xml version=""1.0""?>\n<Clock xmlns:dt=""urn:schemas-microsoft-com:datatypes""><Description dt:dt=""string"">E-Prime Primary Realtime Clock</Description><StartTime><Timestamp dt:dt=""int"">0</Timestamp><DateUtc dt:dt=""string"">2016-12-22T07:14:08Z</DateUtc></StartTime><FrequencyChanges><FrequencyChange><Frequency dt:dt=""r8"">3579545</Frequency><Timestamp dt:dt=""r8"">79208180474</Timestamp><Current dt:dt=""r8"">0</Current><DateUtc dt:dt=""string"">2016-12-22T07:14:08Z</DateUtc></FrequencyChange></FrequencyChanges></Clock>\n",2016-12-22 15:14,84.839,1,1899473078,12-22-2016,15:14:08,7:14:08,1,,,,,,,,1,1,1,,,,,,,,,,,,,,,,,lxProc,lx,,,5,lxhad,4,1,5,0,,-999999,30,89246,1,3624,92870,nv audio/head.wav,lxpro1,lxlist
nv,11,1,"<?xml version=""1.0""?>\n<Clock xmlns:dt=""urn:schemas-microsoft-com:datatypes""><Description dt:dt=""string"">E-Prime Primary Realtime Clock</Description><StartTime><Timestamp dt:dt=""int"">0</Timestamp><DateUtc dt:dt=""string"">2016-12-22T07:14:08Z</DateUtc></StartTime><FrequencyChanges><FrequencyChange><Frequency dt:dt=""r8"">3579545</Frequency><Timestamp dt:dt=""r8"">79208180474</Timestamp><Current dt:dt=""r8"">0</Current><DateUtc dt:dt=""string"">2016-12-22T07:14:08Z</DateUtc></FrequencyChange></FrequencyChanges></Clock>\n",2016-12-22 15:14,84.839,1,1899473078,12-22-2016,15:14:08,7:14:08,1,,,,,,,,1,1,1,,,,,,,,,,,,,,,,,lxProc,lx,,,6,lxhayed,3,1,6,0,,-999999,30,93407,1,3038,96445,nv audio/hayed.wav,lxpro1,lxlist
nv,11,1,"<?xml version=""1.0""?>\n<Clock xmlns:dt=""urn:schemas-microsoft-com:datatypes""><Description dt:dt=""string"">E-Prime Primary Realtime Clock</Description><StartTime><Timestamp dt:dt=""int"">0</Timestamp><DateUtc dt:dt=""string"">2016-12-22T07:14:08Z</DateUtc></StartTime><FrequencyChanges><FrequencyChange><Frequency dt:dt=""r8"">3579545</Frequency><Timestamp dt:dt=""r8"">79208180474</Timestamp><Current dt:dt=""r8"">0</Current><DateUtc dt:dt=""string"">2016-12-22T07:14:08Z</DateUtc></FrequencyChange></FrequencyChanges></Clock>\n",2016-12-22 15:14,84.839,1,1899473078,12-22-2016,15:14:08,7:14:08,1,,,,,,,,1,1,1,,,,,,,,,,,,,,,,,lxProc,lx,,,7,lxheard,7,1,7,0,,-999999,19,96979,1,2711,99690,nv audio/hid.wav,lxpro1,lxlist
nv,11,1,"<?xml version=""1.0""?>\n<Clock xmlns:dt=""urn:schemas-microsoft-com:datatypes""><Description dt:dt=""string"">E-Prime Primary Realtime Clock</Description><StartTime><Timestamp dt:dt=""int"">0</Timestamp><DateUtc dt:dt=""string"">2016-12-22T07:14:08Z</DateUtc></StartTime><FrequencyChanges><FrequencyChange><Frequency dt:dt=""r8"">3579545</Frequency><Timestamp dt:dt=""r8"">79208180474</Timestamp><Current dt:dt=""r8"">0</Current><DateUtc dt:dt=""string"">2016-12-22T07:14:08Z</DateUtc></FrequencyChange></FrequencyChanges></Clock>\n",2016-12-22 15:14,84.839,1,1899473078,12-22-2016,15:14:08,7:14:08,1,,,,,,,,1,1,1,,,,,,,,,,,,,,,,,lxProc,lx,,,8,lxheed,6,1,8,0,,-999999,31,100232,1,2174,102406,nv audio/heed.wav,lxpro1,lxlist
nv,11,1,"<?xml version=""1.0""?>\n<Clock xmlns:dt=""urn:schemas-microsoft-com:datatypes""><Description dt:dt=""string"">E-Prime Primary Realtime Clock</Description><StartTime><Timestamp dt:dt=""int"">0</Timestamp><DateUtc dt:dt=""string"">2016-12-22T07:14:08Z</DateUtc></StartTime><FrequencyChanges><FrequencyChange><Frequency dt:dt=""r8"">3579545</Frequency><Timestamp dt:dt=""r8"">79208180474</Timestamp><Current dt:dt=""r8"">0</Current><DateUtc dt:dt=""string"">2016-12-22T07:14:08Z</DateUtc></FrequencyChange></FrequencyChanges></Clock>\n",2016-12-22 15:14,84.839,1,1899473078,12-22-2016,15:14:08,7:14:08,1,,,,,,,,1,1,1,,,,,,,,,,,,,,,,,lxProc,lx,,,9,lxhud,10,1,9,0,,-999999,19,102931,1,2083,105014,nv audio/hood.wav,lxpro1,lxlist
nv,11,1,"<?xml version=""1.0""?>\n<Clock xmlns:dt=""urn:schemas-microsoft-com:datatypes""><Description dt:dt=""string"">E-Prime Primary Realtime Clock</Description><StartTime><Timestamp dt:dt=""int"">0</Timestamp><DateUtc dt:dt=""string"">2016-12-22T07:14:08Z</DateUtc></StartTime><FrequencyChanges><FrequencyChange><Frequency dt:dt=""r8"">3579545</Frequency><Timestamp dt:dt=""r8"">79208180474</Timestamp><Current dt:dt=""r8"">0</Current><DateUtc dt:dt=""string"">2016-12-22T07:14:08Z</DateUtc></FrequencyChange></FrequencyChanges></Clock>\n",2016-12-22 15:14,84.839,1,1899473078,12-22-2016,15:14:08,7:14:08,1,,,,,,,,1,1,1,,,,,,,,,,,,,,,,,lxProc,lx,,,10,lxhod,2,1,10,0,,-999999,31,105548,1,3110,108658,nv audio/hawed.wav,lxpro1,lxlist
nv,11,1,"<?xml version=""1.0""?>\n<Clock xmlns:dt=""urn:schemas-microsoft-com:datatypes""><Description dt:dt=""string"">E-Prime Primary Realtime Clock</Description><StartTime><Timestamp dt:dt=""int"">0</Timestamp><DateUtc dt:dt=""string"">2016-12-22T07:14:08Z</DateUtc></StartTime><FrequencyChanges><FrequencyChange><Frequency dt:dt=""r8"">3579545</Frequency><Timestamp dt:dt=""r8"">79208180474</Timestamp><Current dt:dt=""r8"">0</Current><DateUtc dt:dt=""string"">2016-12-22T07:14:08Z</DateUtc></FrequencyChange></FrequencyChanges></Clock>\n",2016-12-22 15:14,84.839,1,1899473078,12-22-2016,15:14:08,7:14:08,1,,,,,,,,1,1,1,,,,,,,,,,,,,,,,,lxProc,lx,,,11,lxheard,5,1,11,0,,-999999,31,109202,1,2967,112169,nv audio/heard.wav,lxpro1,lxlist
nv,11,1,"<?xml version=""1.0""?>\n<Clock xmlns:dt=""urn:schemas-microsoft-com:datatypes""><Description dt:dt=""string"">E-Prime Primary Realtime Clock</Description><StartTime><Timestamp dt:dt=""int"">0</Timestamp><DateUtc dt:dt=""string"">2016-12-22T07:14:08Z</DateUtc></StartTime><FrequencyChanges><FrequencyChange><Frequency dt:dt=""r8"">3579545</Frequency><Timestamp dt:dt=""r8"">79208180474</Timestamp><Current dt:dt=""r8"">0</Current><DateUtc dt:dt=""string"">2016-12-22T07:14:08Z</DateUtc></FrequencyChange></FrequencyChanges></Clock>\n",2016-12-22 15:14,84.839,1,1899473078,12-22-2016,15:14:08,7:14:08,1,,,,,,,,1,1,1,,,,,,,,,,,,,,,,,lxProc,lx,,,12,lxhod,8,1,12,0,,-999999,18,112702,1,2337,115039,nv audio/hod.wav,lxpro1,lxlist
nv,11,1,"<?xml version=""1.0""?>\n<Clock xmlns:dt=""urn:schemas-microsoft-com:datatypes""><Description dt:dt=""string"">E-Prime Primary Realtime Clock</Description><StartTime><Timestamp dt:dt=""int"">0</Timestamp><DateUtc dt:dt=""string"">2016-12-22T07:14:08Z</DateUtc></StartTime><FrequencyChanges><FrequencyChange><Frequency dt:dt=""r8"">3579545</Frequency><Timestamp dt:dt=""r8"">79208180474</Timestamp><Current dt:dt=""r8"">0</Current><DateUtc dt:dt=""string"">2016-12-22T07:14:08Z</DateUtc></FrequencyChange></FrequencyChanges></Clock>\n",2016-12-22 15:14,84.839,1,1899473078,12-22-2016,15:14:08,7:14:08,1,,,,,,,,1,1,1,,,,,,,,,,,,,,,,,lxProc,lx,,,13,lxhod,8,2,13,0,,-999999,30,115578,1,1657,117235,nv audio/hod.wav,lxpro1,lxlist
nv,11,1,"<?xml version=""1.0""?>\n<Clock xmlns:dt=""urn:schemas-microsoft-com:datatypes""><Description dt:dt=""string"">E-Prime Primary Realtime Clock</Description><StartTime><Timestamp dt:dt=""int"">0</Timestamp><DateUtc dt:dt=""string"">2016-12-22T07:14:08Z</DateUtc></StartTime><FrequencyChanges><FrequencyChange><Frequency dt:dt=""r8"">3579545</Frequency><Timestamp dt:dt=""r8"">79208180474</Timestamp><Current dt:dt=""r8"">0</Current><DateUtc dt:dt=""string"">2016-12-22T07:14:08Z</DateUtc></FrequencyChange></FrequencyChanges></Clock>\n",2016-12-22 15:14,84.839,1,1899473078,12-22-2016,15:14:08,7:14:08,1,,,,,,,,1,1,1,,,,,,,,,,,,,,,,,lxProc,lx,,,14,lxhayed,3,2,14,0,,-999999,19,117759,1,1455,119214,nv audio/hayed.wav,lxpro1,lxlist
nv,11,1,"<?xml version=""1.0""?>\n<Clock xmlns:dt=""urn:schemas-microsoft-com:datatypes""><Description dt:dt=""string"">E-Prime Primary Realtime Clock</Description><StartTime><Timestamp dt:dt=""int"">0</Timestamp><DateUtc dt:dt=""string"">2016-12-22T07:14:08Z</DateUtc></StartTime><FrequencyChanges><FrequencyChange><Frequency dt:dt=""r8"">3579545</Frequency><Timestamp dt:dt=""r8"">79208180474</Timestamp><Current dt:dt=""r8"">0</Current><DateUtc dt:dt=""string"">2016-12-22T07:14:08Z</DateUtc></FrequencyChange></FrequencyChanges></Clock>\n",2016-12-22 15:14,84.839,1,1899473078,12-22-2016,15:14:08,7:14:08,1,,,,,,,,1,1,1,,,,,,,,,,,,,,,,,lxProc,lx,,,15,lxheard,5,2,15,0,,-999999,30,119751,1,1694,121445,nv audio/heard.wav,lxpro1,lxlist
nv,11,1,"<?xml version=""1.0""?>\n<Clock xmlns:dt=""urn:schemas-microsoft-com:datatypes""><Description dt:dt=""string"">E-Prime Primary Realtime Clock</Description><StartTime><Timestamp dt:dt=""int"">0</Timestamp><DateUtc dt:dt=""string"">2016-12-22T07:14:08Z</DateUtc></StartTime><FrequencyChanges><FrequencyChange><Frequency dt:dt=""r8"">3579545</Frequency><Timestamp dt:dt=""r8"">79208180474</Timestamp><Current dt:dt=""r8"">0</Current><DateUtc dt:dt=""string"">2016-12-22T07:14:08Z</DateUtc></FrequencyChange></FrequencyChanges></Clock>\n",2016-12-22 15:14,84.839,1,1899473078,12-22-2016,15:14:08,7:14:08,1,,,,,,,,1,1,1,,,,,,,,,,,,,,,,,lxProc,lx,,,16,lxhood,12,2,16,0,,-999999,19,121979,1,4646,126625,nv audio/whod.wav,lxpro1,lxlist
nv,11,1,"<?xml version=""1.0""?>\n<Clock xmlns:dt=""urn:schemas-microsoft-com:datatypes""><Description dt:dt=""string"">E-Prime Primary Realtime Clock</Description><StartTime><Timestamp dt:dt=""int"">0</Timestamp><DateUtc dt:dt=""string"">2016-12-22T07:14:08Z</DateUtc></StartTime><FrequencyChanges><FrequencyChange><Frequency dt:dt=""r8"">3579545</Frequency><Timestamp dt:dt=""r8"">79208180474</Timestamp><Current dt:dt=""r8"">0</Current><DateUtc dt:dt=""string"">2016-12-22T07:14:08Z</DateUtc></FrequencyChange></FrequencyChanges></Clock>\n",2016-12-22 15:14,84.839,1,1899473078,12-22-2016,15:14:08,7:14:08,1,,,,,,,,1,1,1,,,,,,,,,,,,,,,,,lxProc,lx,,,17,lxhoed,9,2,17,0,,-999999,18,127153,1,1493,128646,nv audio/hoed.wav,lxpro1,lxlist
nv,11,1,"<?xml version=""1.0""?>\n<Clock xmlns:dt=""urn:schemas-microsoft-com:datatypes""><Description dt:dt=""string"">E-Prime Primary Realtime Clock</Description><StartTime><Timestamp dt:dt=""int"">0</Timestamp><DateUtc dt:dt=""string"">2016-12-22T07:14:08Z</DateUtc></StartTime><FrequencyChanges><FrequencyChange><Frequency dt:dt=""r8"">3579545</Frequency><Timestamp dt:dt=""r8"">79208180474</Timestamp><Current dt:dt=""r8"">0</Current><DateUtc dt:dt=""string"">2016-12-22T07:14:08Z</DateUtc></FrequencyChange></FrequencyChanges></Clock>\n",2016-12-22 15:14,84.839,1,1899473078,12-22-2016,15:14:08,7:14:08,1,,,,,,,,1,1,1,,,,,,,,,,,,,,,,,lxProc,lx,,,18,lxhad,4,2,18,0,,-999999,54,129204,1,2923,132127,nv audio/head.wav,lxpro1,lxlist
nv,11,1,"<?xml version=""1.0""?>\n<Clock xmlns:dt=""urn:schemas-microsoft-com:datatypes""><Description dt:dt=""string"">E-Prime Primary Realtime Clock</Description><StartTime><Timestamp dt:dt=""int"">0</Timestamp><DateUtc dt:dt=""string"">2016-12-22T07:14:08Z</DateUtc></StartTime><FrequencyChanges><FrequencyChange><Frequency dt:dt=""r8"">3579545</Frequency><Timestamp dt:dt=""r8"">79208180474</Timestamp><Current dt:dt=""r8"">0</Current><DateUtc dt:dt=""string"">2016-12-22T07:14:08Z</DateUtc></FrequencyChange></FrequencyChanges></Clock>\n",2016-12-22 15:14,84.839,1,1899473078,12-22-2016,15:14:08,7:14:08,1,,,,,,,,1,1,1,,,,,,,,,,,,,,,,,lxProc,lx,,,19,lxhawed,11,2,19,0,,-999999,31,132670,1,1364,134034,nv audio/hud.wav,lxpro1,lxlist
nv,11,1,"<?xml version=""1.0""?>\n<Clock xmlns:dt=""urn:schemas-microsoft-com:datatypes""><Description dt:dt=""string"">E-Prime Primary Realtime Clock</Description><StartTime><Timestamp dt:dt=""int"">0</Timestamp><DateUtc dt:dt=""string"">2016-12-22T07:14:08Z</DateUtc></StartTime><FrequencyChanges><FrequencyChange><Frequency dt:dt=""r8"">3579545</Frequency><Timestamp dt:dt=""r8"">79208180474</Timestamp><Current dt:dt=""r8"">0</Current><DateUtc dt:dt=""string"">2016-12-22T07:14:08Z</DateUtc></FrequencyChange></FrequencyChanges></Clock>\n",2016-12-22 15:14,84.839,1,1899473078,12-22-2016,15:14:08,7:14:08,1,,,,,,,,1,1,1,,,,,,,,,,,,,,,,,lxProc,lx,,,20,lxhood,10,2,20,0,,-999999,30,134579,1,1683,136262,nv audio/hood.wav,lxpro1,lxlist
nv,11,1,"<?xml version=""1.0""?>\n<Clock xmlns:dt=""urn:schemas-microsoft-com:datatypes""><Description dt:dt=""string"">E-Prime Primary Realtime Clock</Description><StartTime><Timestamp dt:dt=""int"">0</Timestamp><DateUtc dt:dt=""string"">2016-12-22T07:14:08Z</DateUtc></StartTime><FrequencyChanges><FrequencyChange><Frequency dt:dt=""r8"">3579545</Frequency><Timestamp dt:dt=""r8"">79208180474</Timestamp><Current dt:dt=""r8"">0</Current><DateUtc dt:dt=""string"">2016-12-22T07:14:08Z</DateUtc></FrequencyChange></FrequencyChanges></Clock>\n",2016-12-22 15:14,84.839,1,1899473078,12-22-2016,15:14:08,7:14:08,1,,,,,,,,1,1,1,,,,,,,,,,,,,,,,,lxProc,lx,,,21,lxhoed,7,2,21,0,,-999999,18,136795,1,2531,139326,nv audio/hid.wav,lxpro1,lxlist
nv,11,1,"<?xml version=""1.0""?>\n<Clock xmlns:dt=""urn:schemas-microsoft-com:datatypes""><Description dt:dt=""string"">E-Prime Primary Realtime Clock</Description><StartTime><Timestamp dt:dt=""int"">0</Timestamp><DateUtc dt:dt=""string"">2016-12-22T07:14:08Z</DateUtc></StartTime><FrequencyChanges><FrequencyChange><Frequency dt:dt=""r8"">3579545</Frequency><Timestamp dt:dt=""r8"">79208180474</Timestamp><Current dt:dt=""r8"">0</Current><DateUtc dt:dt=""string"">2016-12-22T07:14:08Z</DateUtc></FrequencyChange></FrequencyChanges></Clock>\n",2016-12-22 15:14,84.839,1,1899473078,12-22-2016,15:14:08,7:14:08,1,,,,,,,,1,1,1,,,,,,,,,,,,,,,,,lxProc,lx,,,22,lxhud,2,2,22,0,,-999999,42,139872,1,2878,142750,nv audio/hawed.wav,lxpro1,lxlist
nv,11,1,"<?xml version=""1.0""?>\n<Clock xmlns:dt=""urn:schemas-microsoft-com:datatypes""><Description dt:dt=""string"">E-Prime Primary Realtime Clock</Description><StartTime><Timestamp dt:dt=""int"">0</Timestamp><DateUtc dt:dt=""string"">2016-12-22T07:14:08Z</DateUtc></StartTime><FrequencyChanges><FrequencyChange><Frequency dt:dt=""r8"">3579545</Frequency><Timestamp dt:dt=""r8"">79208180474</Timestamp><Current dt:dt=""r8"">0</Current><DateUtc dt:dt=""string"">2016-12-22T07:14:08Z</DateUtc></FrequencyChange></FrequencyChanges></Clock>\n",2016-12-22 15:14,84.839,1,1899473078,12-22-2016,15:14:08,7:14:08,1,,,,,,,,1,1,1,,,,,,,,,,,,,,,,,lxProc,lx,,,23,lxhad,1,2,23,0,,-999999,19,143278,1,1870,145148,nv audio/had.wav,lxpro1,lxlist
nv,11,1,"<?xml version=""1.0""?>\n<Clock xmlns:dt=""urn:schemas-microsoft-com:datatypes""><Description dt:dt=""string"">E-Prime Primary Realtime Clock</Description><StartTime><Timestamp dt:dt=""int"">0</Timestamp><DateUtc dt:dt=""string"">2016-12-22T07:14:08Z</DateUtc></StartTime><FrequencyChanges><FrequencyChange><Frequency dt:dt=""r8"">3579545</Frequency><Timestamp dt:dt=""r8"">79208180474</Timestamp><Current dt:dt=""r8"">0</Current><DateUtc dt:dt=""string"">2016-12-22T07:14:08Z</DateUtc></FrequencyChange></FrequencyChanges></Clock>\n",2016-12-22 15:14,84.839,1,1899473078,12-22-2016,15:14:08,7:14:08,1,,,,,,,,1,1,1,,,,,,,,,,,,,,,,,lxProc,lx,,,24,lxheed,6,2,24,0,,-999999,31,145683,1,1244,146927,nv audio/heed.wav,lxpro1,lxlist
nv,11,1,"<?xml version=""1.0""?>\n<Clock xmlns:dt=""urn:schemas-microsoft-com:datatypes""><Description dt:dt=""string"">E-Prime Primary Realtime Clock</Description><StartTime><Timestamp dt:dt=""int"">0</Timestamp><DateUtc dt:dt=""string"">2016-12-22T07:14:08Z</DateUtc></StartTime><FrequencyChanges><FrequencyChange><Frequency dt:dt=""r8"">3579545</Frequency><Timestamp dt:dt=""r8"">79208180474</Timestamp><Current dt:dt=""r8"">0</Current><DateUtc dt:dt=""string"">2016-12-22T07:14:08Z</DateUtc></FrequencyChange></FrequencyChanges></Clock>\n",2016-12-22 15:14,84.839,1,1899473078,12-22-2016,15:14:08,7:14:08,2,hoed,2,1,1,,,,,,,0,,-999999,22,151930,1,2814,154744,,,,,,,,,aexppro111,block1,nv audio/hawed.wav,,,,,,,,,,,,,,,,,
nv,11,1,"<?xml version=""1.0""?>\n<Clock xmlns:dt=""urn:schemas-microsoft-com:datatypes""><Description dt:dt=""string"">E-Prime Primary Realtime Clock</Description><StartTime><Timestamp dt:dt=""int"">0</Timestamp><DateUtc dt:dt=""string"">2016-12-22T07:14:08Z</DateUtc></StartTime><FrequencyChanges><FrequencyChange><Frequency dt:dt=""r8"">3579545</Frequency><Timestamp dt:dt=""r8"">79208180474</Timestamp><Current dt:dt=""r8"">0</Current><DateUtc dt:dt=""string"">2016-12-22T07:14:08Z</DateUtc></FrequencyChange></FrequencyChanges></Clock>\n",2016-12-22 15:14,84.839,1,1899473078,12-22-2016,15:14:08,7:14:08,3,hoed,11,1,2,,,,,,,0,,-999999,19,155266,1,1263,156529,,,,,,,,,aexppro111,block1,nv audio/hud.wav,,,,,,,,,,,,,,,,,
nv,11,1,"<?xml version=""1.0""?>\n<Clock xmlns:dt=""urn:schemas-microsoft-com:datatypes""><Description dt:dt=""string"">E-Prime Primary Realtime Clock</Description><StartTime><Timestamp dt:dt=""int"">0</Timestamp><DateUtc dt:dt=""string"">2016-12-22T07:14:08Z</DateUtc></StartTime><FrequencyChanges><FrequencyChange><Frequency dt:dt=""r8"">3579545</Frequency><Timestamp dt:dt=""r8"">79208180474</Timestamp><Current dt:dt=""r8"">0</Current><DateUtc dt:dt=""string"">2016-12-22T07:14:08Z</DateUtc></FrequencyChange></FrequencyChanges></Clock>\n",2016-12-22 15:14,84.839,1,1899473078,12-22-2016,15:14:08,7:14:08,4,heard,7,1,3,,,,,,,0,,-999999,18,157057,1,2227,159284,,,,,,,,,aexppro111,block1,nv audio/hid.wav,,,,,,,,,,,,,,,,,
nv,11,1,"<?xml version=""1.0""?>\n<Clock xmlns:dt=""urn:schemas-microsoft-com:datatypes""><Description dt:dt=""string"">E-Prime Primary Realtime Clock</Description><StartTime><Timestamp dt:dt=""int"">0</Timestamp><DateUtc dt:dt=""string"">2016-12-22T07:14:08Z</DateUtc></StartTime><FrequencyChanges><FrequencyChange><Frequency dt:dt=""r8"">3579545</Frequency><Timestamp dt:dt=""r8"">79208180474</Timestamp><Current dt:dt=""r8"">0</Current><DateUtc dt:dt=""string"">2016-12-22T07:14:08Z</DateUtc></FrequencyChange></FrequencyChanges></Clock>\n",2016-12-22 15:14,84.839,1,1899473078,12-22-2016,15:14:08,7:14:08,5,head,4,1,4,,,,,,,0,,-999999,30,159827,1,1358,161185,,,,,,,,,aexppro111,block1,nv audio/head.wav,,,,,,,,,,,,,,,,,
nv,11,1,"<?xml version=""1.0""?>\n<Clock xmlns:dt=""urn:schemas-microsoft-com:datatypes""><Description dt:dt=""string"">E-Prime Primary Realtime Clock</Description><StartTime><Timestamp dt:dt=""int"">0</Timestamp><DateUtc dt:dt=""string"">2016-12-22T07:14:08Z</DateUtc></StartTime><FrequencyChanges><FrequencyChange><Frequency dt:dt=""r8"">3579545</Frequency><Timestamp dt:dt=""r8"">79208180474</Timestamp><Current dt:dt=""r8"">0</Current><DateUtc dt:dt=""string"">2016-12-22T07:14:08Z</DateUtc></FrequencyChange></FrequencyChanges></Clock>\n",2016-12-22 15:14,84.839,1,1899473078,12-22-2016,15:14:08,7:14:08,6,hood,12,1,5,,,,,,,0,,-999999,19,161713,1,2261,163974,,,,,,,,,aexppro111,block1,nv audio/whod.wav,,,,,,,,,,,,,,,,,
nv,11,1,"<?xml version=""1.0""?>\n<Clock xmlns:dt=""urn:schemas-microsoft-com:datatypes""><Description dt:dt=""string"">E-Prime Primary Realtime Clock</Description><StartTime><Timestamp dt:dt=""int"">0</Timestamp><DateUtc dt:dt=""string"">2016-12-22T07:14:08Z</DateUtc></StartTime><FrequencyChanges><FrequencyChange><Frequency dt:dt=""r8"">3579545</Frequency><Timestamp dt:dt=""r8"">79208180474</Timestamp><Current dt:dt=""r8"">0</Current><DateUtc dt:dt=""string"">2016-12-22T07:14:08Z</DateUtc></FrequencyChange></FrequencyChanges></Clock>\n",2016-12-22 15:14,84.839,1,1899473078,12-22-2016,15:14:08,7:14:08,7,hud,10,1,6,,,,,,,0,,-999999,30,164518,1,1855,166373,,,,,,,,,aexppro111,block1,nv audio/hood.wav,,,,,,,,,,,,,,,,,
nv,11,1,"<?xml version=""1.0""?>\n<Clock xmlns:dt=""urn:schemas-microsoft-com:datatypes""><Description dt:dt=""string"">E-Prime Primary Realtime Clock</Description><StartTime><Timestamp dt:dt=""int"">0</Timestamp><DateUtc dt:dt=""string"">2016-12-22T07:14:08Z</DateUtc></StartTime><FrequencyChanges><FrequencyChange><Frequency dt:dt=""r8"">3579545</Frequency><Timestamp dt:dt=""r8"">79208180474</Timestamp><Current dt:dt=""r8"">0</Current><DateUtc dt:dt=""string"">2016-12-22T07:14:08Z</DateUtc></FrequencyChange></FrequencyChanges></Clock>\n",2016-12-22 15:14,84.839,1,1899473078,12-22-2016,15:14:08,7:14:08,8,head,1,1,7,,,,,,,0,,-999999,18,166899,1,2543,169442,,,,,,,,,aexppro111,block1,nv audio/had.wav,,,,,,,,,,,,,,,,,
nv,11,1,"<?xml version=""1.0""?>\n<Clock xmlns:dt=""urn:schemas-microsoft-com:datatypes""><Description dt:dt=""string"">E-Prime Primary Realtime Clock</Description><StartTime><Timestamp dt:dt=""int"">0</Timestamp><DateUtc dt:dt=""string"">2016-12-22T07:14:08Z</DateUtc></StartTime><FrequencyChanges><FrequencyChange><Frequency dt:dt=""r8"">3579545</Frequency><Timestamp dt:dt=""r8"">79208180474</Timestamp><Current dt:dt=""r8"">0</Current><DateUtc dt:dt=""string"">2016-12-22T07:14:08Z</DateUtc></FrequencyChange></FrequencyChanges></Clock>\n",2016-12-22 15:14,84.839,1,1899473078,12-22-2016,15:14:08,7:14:08,9,heard,5,1,8,,,,,,,0,,-999999,18,169964,1,2105,172069,,,,,,,,,aexppro111,block1,nv audio/heard.wav
nv,11,1,"<?xml version=""1.0""?>\n<Clock xmlns:dt=""urn:schemas-microsoft-com:datatypes""><Description dt:dt=""string"">E-Prime Primary Realtime Clock</Description><StartTime><Timestamp dt:dt=""int"">0</Timestamp><DateUtc dt:dt=""string"">2016-12-22T07:14:08Z</DateUtc></StartTime><FrequencyChanges><FrequencyChange><Frequency dt:dt=""r8"">3579545</Frequency><Timestamp dt:dt=""r8"">79208180474</Timestamp><Current dt:dt=""r8"">0</Current><DateUtc dt:dt=""string"">2016-12-22T07:14:08Z</DateUtc></FrequencyChange></FrequencyChanges></Clock>\n",2016-12-22 15:14,84.839,1,1899473078,12-22-2016,15:14:08,7:14:08,10,heed,6,1,9,,,,,,,0,,-999999,19,172593,1,1509,174102,,,,,,,,,aexppro111,block1,nv audio/heed.wav
nv,11,1,"<?xml version=""1.0""?>\n<Clock xmlns:dt=""urn:schemas-microsoft-com:datatypes""><Description dt:dt=""string"">E-Prime Primary Realtime Clock</Description><StartTime><Timestamp dt:dt=""int"">0</Timestamp><DateUtc dt:dt=""string"">2016-12-22T07:14:08Z</DateUtc></StartTime><FrequencyChanges><FrequencyChange><Frequency dt:dt=""r8"">3579545</Frequency><Timestamp dt:dt=""r8"">79208180474</Timestamp><Current dt:dt=""r8"">0</Current><DateUtc dt:dt=""string"">2016-12-22T07:14:08Z</DateUtc></FrequencyChange></FrequencyChanges></Clock>\n",2016-12-22 15:14,84.839,1,1899473078,12-22-2016,15:14:08,7:14:08,11,hod,8,1,10,,,,,,,0,,-999999,31,174644,1,1525,176169,,,,,,,,,aexppro111,block1,nv audio/hod.wav
nv,11,1,"<?xml version=""1.0""?>\n<Clock xmlns:dt=""urn:schemas-microsoft-com:datatypes""><Description dt:dt=""string"">E-Prime Primary Realtime Clock</Description><StartTime><Timestamp dt:dt=""int"">0</Timestamp><DateUtc dt:dt=""string"">2016-12-22T07:14:08Z</DateUtc></StartTime><FrequencyChanges><FrequencyChange><Frequency dt:dt=""r8"">3579545</Frequency><Timestamp dt:dt=""r8"">79208180474</Timestamp><Current dt:dt=""r8"">0</Current><DateUtc dt:dt=""string"">2016-12-22T07:14:08Z</DateUtc></FrequencyChange></FrequencyChanges></Clock>\n",2016-12-22 15:14,84.839,1,1899473078,12-22-2016,15:14:08,7:14:08,12,hid,3,1,11,,,,,,,0,,-999999,30,176706,1,3161,179867,,,,,,,,,aexppro111,block1,nv audio/hayed.wav
nv,11,1,"<?xml version=""1.0""?>\n<Clock xmlns:dt=""urn:schemas-microsoft-com:datatypes""><Description dt:dt=""string"">E-Prime Primary Realtime Clock</Description><StartTime><Timestamp dt:dt=""int"">0</Timestamp><DateUtc dt:dt=""string"">2016-12-22T07:14:08Z</DateUtc></StartTime><FrequencyChanges><FrequencyChange><Frequency dt:dt=""r8"">3579545</Frequency><Timestamp dt:dt=""r8"">79208180474</Timestamp><Current dt:dt=""r8"">0</Current><DateUtc dt:dt=""string"">2016-12-22T07:14:08Z</DateUtc></FrequencyChange></FrequencyChanges></Clock>\n",2016-12-22 15:14,84.839,1,1899473078,12-22-2016,15:14:08,7:14:08,13,hood,9,1,12,,,,,,,0,,-999999,30,180407,1,1167,181574,,,,,,,,,aexppro111,block1,nv audio/hoed.wav
nv,11,1,"<?xml version=""1.0""?>\n<Clock xmlns:dt=""urn:schemas-microsoft-com:datatypes""><Description dt:dt=""string"">E-Prime Primary Realtime Clock</Description><StartTime><Timestamp dt:dt=""int"">0</Timestamp><DateUtc dt:dt=""string"">2016-12-22T07:14:08Z</DateUtc></StartTime><FrequencyChanges><FrequencyChange><Frequency dt:dt=""r8"">3579545</Frequency><Timestamp dt:dt=""r8"">79208180474</Timestamp><Current dt:dt=""r8"">0</Current><DateUtc dt:dt=""string"">2016-12-22T07:14:08Z</DateUtc></FrequencyChange></FrequencyChanges></Clock>\n",2016-12-22 15:14,84.839,1,1899473078,12-22-2016,15:14:08,7:14:08,14,hood,12,2,13,,,,,,,0,,-999999,19,182105,1,2025,184130,,,,,,,,,aexppro111,block1,nv audio/whod.wav
nv,11,1,"<?xml version=""1.0""?>\n<Clock xmlns:dt=""urn:schemas-microsoft-com:datatypes""><Description dt:dt=""string"">E-Prime Primary Realtime Clock</Description><StartTime><Timestamp dt:dt=""int"">0</Timestamp><DateUtc dt:dt=""string"">2016-12-22T07:14:08Z</DateUtc></StartTime><FrequencyChanges><FrequencyChange><Frequency dt:dt=""r8"">3579545</Frequency><Timestamp dt:dt=""r8"">79208180474</Timestamp><Current dt:dt=""r8"">0</Current><DateUtc dt:dt=""string"">2016-12-22T07:14:08Z</DateUtc></FrequencyChange></FrequencyChanges></Clock>\n",2016-12-22 15:14,84.839,1,1899473078,12-22-2016,15:14:08,7:14:08,15,hod,2,2,14,,,,,,,0,,-999999,30,184674,1,1886,186560,,,,,,,,,aexppro111,block1,nv audio/hawed.wav
nv,11,1,"<?xml version=""1.0""?>\n<Clock xmlns:dt=""urn:schemas-microsoft-com:datatypes""><Description dt:dt=""string"">E-Prime Primary Realtime Clock</Description><StartTime><Timestamp dt:dt=""int"">0</Timestamp><DateUtc dt:dt=""string"">2016-12-22T07:14:08Z</DateUtc></StartTime><FrequencyChanges><FrequencyChange><Frequency dt:dt=""r8"">3579545</Frequency><Timestamp dt:dt=""r8"">79208180474</Timestamp><Current dt:dt=""r8"">0</Current><DateUtc dt:dt=""string"">2016-12-22T07:14:08Z</DateUtc></FrequencyChange></FrequencyChanges></Clock>\n",2016-12-22 15:14,84.839,1,1899473078,12-22-2016,15:14:08,7:14:08,16,hoed,9,2,15,,,,,,,0,,-999999,19,187091,1,1356,188447,,,,,,,,,aexppro111,block1,nv audio/hoed.wav
nv,11,1,"<?xml version=""1.0""?>\n<Clock xmlns:dt=""urn:schemas-microsoft-com:datatypes""><Description dt:dt=""string"">E-Prime Primary Realtime Clock</Description><StartTime><Timestamp dt:dt=""int"">0</Timestamp><DateUtc dt:dt=""string"">2016-12-22T07:14:08Z</DateUtc></StartTime><FrequencyChanges><FrequencyChange><Frequency dt:dt=""r8"">3579545</Frequency><Timestamp dt:dt=""r8"">79208180474</Timestamp><Current dt:dt=""r8"">0</Current><DateUtc dt:dt=""string"">2016-12-22T07:14:08Z</DateUtc></FrequencyChange></FrequencyChanges></Clock>\n",2016-12-22 15:14,84.839,1,1899473078,12-22-2016,15:14:08,7:14:08,17,heard,5,2,16,,,,,,,0,,-999999,19,188977,1,2735,191712,,,,,,,,,aexppro111,block1,nv audio/heard.wav
nv,11,1,"<?xml version=""1.0""?>\n<Clock xmlns:dt=""urn:schemas-microsoft-com:datatypes""><Description dt:dt=""string"">E-Prime Primary Realtime Clock</Description><StartTime><Timestamp dt:dt=""int"">0</Timestamp><DateUtc dt:dt=""string"">2016-12-22T07:14:08Z</DateUtc></StartTime><FrequencyChanges><FrequencyChange><Frequency dt:dt=""r8"">3579545</Frequency><Timestamp dt:dt=""r8"">79208180474</Timestamp><Current dt:dt=""r8"">0</Current><DateUtc dt:dt=""string"">2016-12-22T07:14:08Z</DateUtc></FrequencyChange></FrequencyChanges></Clock>\n",2016-12-22 15:14,84.839,1,1899473078,12-22-2016,15:14:08,7:14:08,18,,3,2,17,,,,,,,1,,0,19,192242,,0,0,,,,,,,,,aexppro111,block1,nv audio/hayed.wav
nv,11,1,"<?xml version=""1.0""?>\n<Clock xmlns:dt=""urn:schemas-microsoft-com:datatypes""><Description dt:dt=""string"">E-Prime Primary Realtime Clock</Description><StartTime><Timestamp dt:dt=""int"">0</Timestamp><DateUtc dt:dt=""string"">2016-12-22T07:14:08Z</DateUtc></StartTime><FrequencyChanges><FrequencyChange><Frequency dt:dt=""r8"">3579545</Frequency><Timestamp dt:dt=""r8"">79208180474</Timestamp><Current dt:dt=""r8"">0</Current><DateUtc dt:dt=""string"">2016-12-22T07:14:08Z</DateUtc></FrequencyChange></FrequencyChanges></Clock>\n",2016-12-22 15:14,84.839,1,1899473078,12-22-2016,15:14:08,7:14:08,19,had,1,2,18,,,,,,,0,,-999999,31,198784,1,1323,200107,,,,,,,,,aexppro111,block1,nv audio/had.wav
nv,11,1,"<?xml version=""1.0""?>\n<Clock xmlns:dt=""urn:schemas-microsoft-com:datatypes""><Description dt:dt=""string"">E-Prime Primary Realtime Clock</Description><StartTime><Timestamp dt:dt=""int"">0</Timestamp><DateUtc dt:dt=""string"">2016-12-22T07:14:08Z</DateUtc></StartTime><FrequencyChanges><FrequencyChange><Frequency dt:dt=""r8"">3579545</Frequency><Timestamp dt:dt=""r8"">79208180474</Timestamp><Current dt:dt=""r8"">0</Current><DateUtc dt:dt=""string"">2016-12-22T07:14:08Z</DateUtc></FrequencyChange></FrequencyChanges></Clock>\n",2016-12-22 15:14,84.839,1,1899473078,12-22-2016,15:14:08,7:14:08,20,heard,7,2,19,,,,,,,0,,-999999,19,200634,1,3932,204566,,,,,,,,,aexppro111,block1,nv audio/hid.wav
nv,11,1,"<?xml version=""1.0""?>\n<Clock xmlns:dt=""urn:schemas-microsoft-com:datatypes""><Description dt:dt=""string"">E-Prime Primary Realtime Clock</Description><StartTime><Timestamp dt:dt=""int"">0</Timestamp><DateUtc dt:dt=""string"">2016-12-22T07:14:08Z</DateUtc></StartTime><FrequencyChanges><FrequencyChange><Frequency dt:dt=""r8"">3579545</Frequency><Timestamp dt:dt=""r8"">79208180474</Timestamp><Current dt:dt=""r8"">0</Current><DateUtc dt:dt=""string"">2016-12-22T07:14:08Z</DateUtc></FrequencyChange></FrequencyChanges></Clock>\n",2016-12-22 15:14,84.839,1,1899473078,12-22-2016,15:14:08,7:14:08,21,heard,11,2,20,,,,,,,0,,-999999,19,205090,1,3034,208124,,,,,,,,,aexppro111,block1,nv audio/hud.wav
nv,11,1,"<?xml version=""1.0""?>\n<Clock xmlns:dt=""urn:schemas-microsoft-com:datatypes""><Description dt:dt=""string"">E-Prime Primary Realtime Clock</Description><StartTime><Timestamp dt:dt=""int"">0</Timestamp><DateUtc dt:dt=""string"">2016-12-22T07:14:08Z</DateUtc></StartTime><FrequencyChanges><FrequencyChange><Frequency dt:dt=""r8"">3579545</Frequency><Timestamp dt:dt=""r8"">79208180474</Timestamp><Current dt:dt=""r8"">0</Current><DateUtc dt:dt=""string"">2016-12-22T07:14:08Z</DateUtc></FrequencyChange></FrequencyChanges></Clock>\n",2016-12-22 15:14,84.839,1,1899473078,12-22-2016,15:14:08,7:14:08,22,hood,10,2,21,,,,,,,0,,-999999,18,208649,1,1588,210237,,,,,,,,,aexppro111,block1,nv audio/hood.wav
nv,11,1,"<?xml version=""1.0""?>\n<Clock xmlns:dt=""urn:schemas-microsoft-com:datatypes""><Description dt:dt=""string"">E-Prime Primary Realtime Clock</Description><StartTime><Timestamp dt:dt=""int"">0</Timestamp><DateUtc dt:dt=""string"">2016-12-22T07:14:08Z</DateUtc></StartTime><FrequencyChanges><FrequencyChange><Frequency dt:dt=""r8"">3579545</Frequency><Timestamp dt:dt=""r8"">79208180474</Timestamp><Current dt:dt=""r8"">0</Current><DateUtc dt:dt=""string"">2016-12-22T07:14:08Z</DateUtc></FrequencyChange></FrequencyChanges></Clock>\n",2016-12-22 15:14,84.839,1,1899473078,12-22-2016,15:14:08,7:14:08,23,hud,8,2,22,,,,,,,0,,-999999,31,210783,1,2485,213268,,,,,,,,,aexppro111,block1,nv audio/hod.wav
nv,11,1,"<?xml version=""1.0""?>\n<Clock xmlns:dt=""urn:schemas-microsoft-com:datatypes""><Description dt:dt=""string"">E-Prime Primary Realtime Clock</Description><StartTime><Timestamp dt:dt=""int"">0</Timestamp><DateUtc dt:dt=""string"">2016-12-22T07:14:08Z</DateUtc></StartTime><FrequencyChanges><FrequencyChange><Frequency dt:dt=""r8"">3579545</Frequency><Timestamp dt:dt=""r8"">79208180474</Timestamp><Current dt:dt=""r8"">0</Current><DateUtc dt:dt=""string"">2016-12-22T07:14:08Z</DateUtc></FrequencyChange></FrequencyChanges></Clock>\n",2016-12-22 15:14,84.839,1,1899473078,12-22-2016,15:14:08,7:14:08,24,had,4,2,23,,,,,,,0,,-999999,30,213812,1,1874,215686,,,,,,,,,aexppro111,block1,nv audio/head.wav
nv,11,1,"<?xml version=""1.0""?>\n<Clock xmlns:dt=""urn:schemas-microsoft-com:datatypes""><Description dt:dt=""string"">E-Prime Primary Realtime Clock</Description><StartTime><Timestamp dt:dt=""int"">0</Timestamp><DateUtc dt:dt=""string"">2016-12-22T07:14:08Z</DateUtc></StartTime><FrequencyChanges><FrequencyChange><Frequency dt:dt=""r8"">3579545</Frequency><Timestamp dt:dt=""r8"">79208180474</Timestamp><Current dt:dt=""r8"">0</Current><DateUtc dt:dt=""string"">2016-12-22T07:14:08Z</DateUtc></FrequencyChange></FrequencyChanges></Clock>\n",2016-12-22 15:14,84.839,1,1899473078,12-22-2016,15:14:08,7:14:08,25,heed,6,2,24,,,,,,,0,,-999999,19,216217,1,2753,218970,,,,,,,,,aexppro111,block1,nv audio/heed.wav
nv,11,1,"<?xml version=""1.0""?>\n<Clock xmlns:dt=""urn:schemas-microsoft-com:datatypes""><Description dt:dt=""string"">E-Prime Primary Realtime Clock</Description><StartTime><Timestamp dt:dt=""int"">0</Timestamp><DateUtc dt:dt=""string"">2016-12-22T07:14:08Z</DateUtc></StartTime><FrequencyChanges><FrequencyChange><Frequency dt:dt=""r8"">3579545</Frequency><Timestamp dt:dt=""r8"">79208180474</Timestamp><Current dt:dt=""r8"">0</Current><DateUtc dt:dt=""string"">2016-12-22T07:14:08Z</DateUtc></FrequencyChange></FrequencyChanges></Clock>\n",2016-12-22 15:14,84.839,1,1899473078,12-22-2016,15:14:08,7:14:08,26,heed,6,3,25,,,,,,,0,,-999999,18,219493,1,1322,220815,,,,,,,,,aexppro111,block1,nv audio/heed.wav
nv,11,1,"<?xml version=""1.0""?>\n<Clock xmlns:dt=""urn:schemas-microsoft-com:datatypes""><Description dt:dt=""string"">E-Prime Primary Realtime Clock</Description><StartTime><Timestamp dt:dt=""int"">0</Timestamp><DateUtc dt:dt=""string"">2016-12-22T07:14:08Z</DateUtc></StartTime><FrequencyChanges><FrequencyChange><Frequency dt:dt=""r8"">3579545</Frequency><Timestamp dt:dt=""r8"">79208180474</Timestamp><Current dt:dt=""r8"">0</Current><DateUtc dt:dt=""string"">2016-12-22T07:14:08Z</DateUtc></FrequencyChange></FrequencyChanges></Clock>\n",2016-12-22 15:14,84.839,1,1899473078,12-22-2016,15:14:08,7:14:08,27,had,1,3,26,,,,,,,0,,-999999,19,221344,1,2453,223797,,,,,,,,,aexppro111,block1,nv audio/had.wav
nv,11,1,"<?xml version=""1.0""?>\n<Clock xmlns:dt=""urn:schemas-microsoft-com:datatypes""><Description dt:dt=""string"">E-Prime Primary Realtime Clock</Description><StartTime><Timestamp dt:dt=""int"">0</Timestamp><DateUtc dt:dt=""string"">2016-12-22T07:14:08Z</DateUtc></StartTime><FrequencyChanges><FrequencyChange><Frequency dt:dt=""r8"">3579545</Frequency><Timestamp dt:dt=""r8"">79208180474</Timestamp><Current dt:dt=""r8"">0</Current><DateUtc dt:dt=""string"">2016-12-22T07:14:08Z</DateUtc></FrequencyChange></FrequencyChanges></Clock>\n",2016-12-22 15:14,84.839,1,1899473078,12-22-2016,15:14:08,7:14:08,28,hood,10,3,27,,,,,,,0,,-999999,18,224326,1,1251,225577,,,,,,,,,aexppro111,block1,nv audio/hood.wav
nv,11,1,"<?xml version=""1.0""?>\n<Clock xmlns:dt=""urn:schemas-microsoft-com:datatypes""><Description dt:dt=""string"">E-Prime Primary Realtime Clock</Description><StartTime><Timestamp dt:dt=""int"">0</Timestamp><DateUtc dt:dt=""string"">2016-12-22T07:14:08Z</DateUtc></StartTime><FrequencyChanges><FrequencyChange><Frequency dt:dt=""r8"">3579545</Frequency><Timestamp dt:dt=""r8"">79208180474</Timestamp><Current dt:dt=""r8"">0</Current><DateUtc dt:dt=""string"">2016-12-22T07:14:08Z</DateUtc></FrequencyChange></FrequencyChanges></Clock>\n",2016-12-22 15:14,84.839,1,1899473078,12-22-2016,15:14:08,7:14:08,29,heard,5,3,28,,,,,,,0,,-999999,19,226106,1,2220,228326,,,,,,,,,aexppro111,block1,nv audio/heard.wav
nv,11,1,"<?xml version=""1.0""?>\n<Clock xmlns:dt=""urn:schemas-microsoft-com:datatypes""><Description dt:dt=""string"">E-Prime Primary Realtime Clock</Description><StartTime><Timestamp dt:dt=""int"">0</Timestamp><DateUtc dt:dt=""string"">2016-12-22T07:14:08Z</DateUtc></StartTime><FrequencyChanges><FrequencyChange><Frequency dt:dt=""r8"">3579545</Frequency><Timestamp dt:dt=""r8"">79208180474</Timestamp><Current dt:dt=""r8"">0</Current><DateUtc dt:dt=""string"">2016-12-22T07:14:08Z</DateUtc></FrequencyChange></FrequencyChanges></Clock>\n",2016-12-22 15:14,84.839,1,1899473078,12-22-2016,15:14:08,7:14:08,30,head,3,3,29,,,,,,,0,,-999999,18,228852,1,3502,232354,,,,,,,,,aexppro111,block1,nv audio/hayed.wav
nv,11,1,"<?xml version=""1.0""?>\n<Clock xmlns:dt=""urn:schemas-microsoft-com:datatypes""><Description dt:dt=""string"">E-Prime Primary Realtime Clock</Description><StartTime><Timestamp dt:dt=""int"">0</Timestamp><DateUtc dt:dt=""string"">2016-12-22T07:14:08Z</DateUtc></StartTime><FrequencyChanges><FrequencyChange><Frequency dt:dt=""r8"">3579545</Frequency><Timestamp dt:dt=""r8"">79208180474</Timestamp><Current dt:dt=""r8"">0</Current><DateUtc dt:dt=""string"">2016-12-22T07:14:08Z</DateUtc></FrequencyChange></FrequencyChanges></Clock>\n",2016-12-22 15:14,84.839,1,1899473078,12-22-2016,15:14:08,7:14:08,31,hood,9,3,30,,,,,,,0,,-999999,19,232884,1,1933,234817,,,,,,,,,aexppro111,block1,nv audio/hoed.wav
nv,11,1,"<?xml version=""1.0""?>\n<Clock xmlns:dt=""urn:schemas-microsoft-com:datatypes""><Description dt:dt=""string"">E-Prime Primary Realtime Clock</Description><StartTime><Timestamp dt:dt=""int"">0</Timestamp><DateUtc dt:dt=""string"">2016-12-22T07:14:08Z</DateUtc></StartTime><FrequencyChanges><FrequencyChange><Frequency dt:dt=""r8"">3579545</Frequency><Timestamp dt:dt=""r8"">79208180474</Timestamp><Current dt:dt=""r8"">0</Current><DateUtc dt:dt=""string"">2016-12-22T07:14:08Z</DateUtc></FrequencyChange></FrequencyChanges></Clock>\n",2016-12-22 15:14,84.839,1,1899473078,12-22-2016,15:14:08,7:14:08,32,hood,11,3,31,,,,,,,0,,-999999,31,235359,1,1431,236790,,,,,,,,,aexppro111,block1,nv audio/hud.wav
nv,11,1,"<?xml version=""1.0""?>\n<Clock xmlns:dt=""urn:schemas-microsoft-com:datatypes""><Description dt:dt=""string"">E-Prime Primary Realtime Clock</Description><StartTime><Timestamp dt:dt=""int"">0</Timestamp><DateUtc dt:dt=""string"">2016-12-22T07:14:08Z</DateUtc></StartTime><FrequencyChanges><FrequencyChange><Frequency dt:dt=""r8"">3579545</Frequency><Timestamp dt:dt=""r8"">79208180474</Timestamp><Current dt:dt=""r8"">0</Current><DateUtc dt:dt=""string"">2016-12-22T07:14:08Z</DateUtc></FrequencyChange></FrequencyChanges></Clock>\n",2016-12-22 15:14,84.839,1,1899473078,12-22-2016,15:14:08,7:14:08,33,hood,12,3,32,,,,,,,0,,-999999,30,237327,1,842,238169,,,,,,,,,aexppro111,block1,nv audio/whod.wav
nv,11,1,"<?xml version=""1.0""?>\n<Clock xmlns:dt=""urn:schemas-microsoft-com:datatypes""><Description dt:dt=""string"">E-Prime Primary Realtime Clock</Description><StartTime><Timestamp dt:dt=""int"">0</Timestamp><DateUtc dt:dt=""string"">2016-12-22T07:14:08Z</DateUtc></StartTime><FrequencyChanges><FrequencyChange><Frequency dt:dt=""r8"">3579545</Frequency><Timestamp dt:dt=""r8"">79208180474</Timestamp><Current dt:dt=""r8"">0</Current><DateUtc dt:dt=""string"">2016-12-22T07:14:08Z</DateUtc></FrequencyChange></FrequencyChanges></Clock>\n",2016-12-22 15:14,84.839,1,1899473078,12-22-2016,15:14:08,7:14:08,34,hod,2,3,33,,,,,,,0,,-999999,19,238695,1,1960,240655,,,,,,,,,aexppro111,block1,nv audio/hawed.wav
nv,11,1,"<?xml version=""1.0""?>\n<Clock xmlns:dt=""urn:schemas-microsoft-com:datatypes""><Description dt:dt=""string"">E-Prime Primary Realtime Clock</Description><StartTime><Timestamp dt:dt=""int"">0</Timestamp><DateUtc dt:dt=""string"">2016-12-22T07:14:08Z</DateUtc></StartTime><FrequencyChanges><FrequencyChange><Frequency dt:dt=""r8"">3579545</Frequency><Timestamp dt:dt=""r8"">79208180474</Timestamp><Current dt:dt=""r8"">0</Current><DateUtc dt:dt=""string"">2016-12-22T07:14:08Z</DateUtc></FrequencyChange></FrequencyChanges></Clock>\n",2016-12-22 15:14,84.839,1,1899473078,12-22-2016,15:14:08,7:14:08,35,hod,8,3,34,,,,,,,0,,-999999,19,241182,1,1337,242519,,,,,,,,,aexppro111,block1,nv audio/hod.wav
nv,11,1,"<?xml version=""1.0""?>\n<Clock xmlns:dt=""urn:schemas-microsoft-com:datatypes""><Description dt:dt=""string"">E-Prime Primary Realtime Clock</Description><StartTime><Timestamp dt:dt=""int"">0</Timestamp><DateUtc dt:dt=""string"">2016-12-22T07:14:08Z</DateUtc></StartTime><FrequencyChanges><FrequencyChange><Frequency dt:dt=""r8"">3579545</Frequency><Timestamp dt:dt=""r8"">79208180474</Timestamp><Current dt:dt=""r8"">0</Current><DateUtc dt:dt=""string"">2016-12-22T07:14:08Z</DateUtc></FrequencyChange></FrequencyChanges></Clock>\n",2016-12-22 15:14,84.839,1,1899473078,12-22-2016,15:14:08,7:14:08,36,head,7,3,35,,,,,,,0,,-999999,19,243044,1,2889,245933,,,,,,,,,aexppro111,block1,nv audio/hid.wav
nv,11,1,"<?xml version=""1.0""?>\n<Clock xmlns:dt=""urn:schemas-microsoft-com:datatypes""><Description dt:dt=""string"">E-Prime Primary Realtime Clock</Description><StartTime><Timestamp dt:dt=""int"">0</Timestamp><DateUtc dt:dt=""string"">2016-12-22T07:14:08Z</DateUtc></StartTime><FrequencyChanges><FrequencyChange><Frequency dt:dt=""r8"">3579545</Frequency><Timestamp dt:dt=""r8"">79208180474</Timestamp><Current dt:dt=""r8"">0</Current><DateUtc dt:dt=""string"">2016-12-22T07:14:08Z</DateUtc></FrequencyChange></FrequencyChanges></Clock>\n",2016-12-22 15:14,84.839,1,1899473078,12-22-2016,15:14:08,7:14:08,37,head,4,3,36,,,,,,,0,,-999999,18,246462,1,2046,248508,,,,,,,,,aexppro111,block1,nv audio/head.wav
nv,11,1,"<?xml version=""1.0""?>\n<Clock xmlns:dt=""urn:schemas-microsoft-com:datatypes""><Description dt:dt=""string"">E-Prime Primary Realtime Clock</Description><StartTime><Timestamp dt:dt=""int"">0</Timestamp><DateUtc dt:dt=""string"">2016-12-22T07:14:08Z</DateUtc></StartTime><FrequencyChanges><FrequencyChange><Frequency dt:dt=""r8"">3579545</Frequency><Timestamp dt:dt=""r8"">79208180474</Timestamp><Current dt:dt=""r8"">0</Current><DateUtc dt:dt=""string"">2016-12-22T07:14:08Z</DateUtc></FrequencyChange></FrequencyChanges></Clock>\n",2016-12-22 15:14,84.839,1,1899473078,12-22-2016,15:14:08,7:14:08,38,hod,8,4,37,,,,,,,0,,-999999,42,249055,1,2416,251471,,,,,,,,,aexppro111,block1,nv audio/hod.wav
nv,11,1,"<?xml version=""1.0""?>\n<Clock xmlns:dt=""urn:schemas-microsoft-com:datatypes""><Description dt:dt=""string"">E-Prime Primary Realtime Clock</Description><StartTime><Timestamp dt:dt=""int"">0</Timestamp><DateUtc dt:dt=""string"">2016-12-22T07:14:08Z</DateUtc></StartTime><FrequencyChanges><FrequencyChange><Frequency dt:dt=""r8"">3579545</Frequency><Timestamp dt:dt=""r8"">79208180474</Timestamp><Current dt:dt=""r8"">0</Current><DateUtc dt:dt=""string"">2016-12-22T07:14:08Z</DateUtc></FrequencyChange></FrequencyChanges></Clock>\n",2016-12-22 15:14,84.839,1,1899473078,12-22-2016,15:14:08,7:14:08,39,head,3,4,38,,,,,,,0,,-999999,30,252014,1,1791,253805,,,,,,,,,aexppro111,block1,nv audio/hayed.wav
nv,11,1,"<?xml version=""1.0""?>\n<Clock xmlns:dt=""urn:schemas-microsoft-com:datatypes""><Description dt:dt=""string"">E-Prime Primary Realtime Clock</Description><StartTime><Timestamp dt:dt=""int"">0</Timestamp><DateUtc dt:dt=""string"">2016-12-22T07:14:08Z</DateUtc></StartTime><FrequencyChanges><FrequencyChange><Frequency dt:dt=""r8"">3579545</Frequency><Timestamp dt:dt=""r8"">79208180474</Timestamp><Current dt:dt=""r8"">0</Current><DateUtc dt:dt=""string"">2016-12-22T07:14:08Z</DateUtc></FrequencyChange></FrequencyChanges></Clock>\n",2016-12-22 15:14,84.839,1,1899473078,12-22-2016,15:14:08,7:14:08,40,hod,9,4,39,,,,,,,0,,-999999,19,254336,1,3001,257337,,,,,,,,,aexppro111,block1,nv audio/hoed.wav
nv,11,1,"<?xml version=""1.0""?>\n<Clock xmlns:dt=""urn:schemas-microsoft-com:datatypes""><Description dt:dt=""string"">E-Prime Primary Realtime Clock</Description><StartTime><Timestamp dt:dt=""int"">0</Timestamp><DateUtc dt:dt=""string"">2016-12-22T07:14:08Z</DateUtc></StartTime><FrequencyChanges><FrequencyChange><Frequency dt:dt=""r8"">3579545</Frequency><Timestamp dt:dt=""r8"">79208180474</Timestamp><Current dt:dt=""r8"">0</Current><DateUtc dt:dt=""string"">2016-12-22T07:14:08Z</DateUtc></FrequencyChange></FrequencyChanges></Clock>\n",2016-12-22 15:14,84.839,1,1899473078,12-22-2016,15:14:08,7:14:08,41,head,1,4,40,,,,,,,0,,-999999,30,257872,1,1250,259122,,,,,,,,,aexppro111,block1,nv audio/had.wav
nv,11,1,"<?xml version=""1.0""?>\n<Clock xmlns:dt=""urn:schemas-microsoft-com:datatypes""><Description dt:dt=""string"">E-Prime Primary Realtime Clock</Description><StartTime><Timestamp dt:dt=""int"">0</Timestamp><DateUtc dt:dt=""string"">2016-12-22T07:14:08Z</DateUtc></StartTime><FrequencyChanges><FrequencyChange><Frequency dt:dt=""r8"">3579545</Frequency><Timestamp dt:dt=""r8"">79208180474</Timestamp><Current dt:dt=""r8"">0</Current><DateUtc dt:dt=""string"">2016-12-22T07:14:08Z</DateUtc></FrequencyChange></FrequencyChanges></Clock>\n",2016-12-22 15:14,84.839,1,1899473078,12-22-2016,15:14:08,7:14:08,42,hood,11,4,41,,,,,,,0,,-999999,19,259652,1,2795,262447,,,,,,,,,aexppro111,block1,nv audio/hud.wav
nv,11,1,"<?xml version=""1.0""?>\n<Clock xmlns:dt=""urn:schemas-microsoft-com:datatypes""><Description dt:dt=""string"">E-Prime Primary Realtime Clock</Description><StartTime><Timestamp dt:dt=""int"">0</Timestamp><DateUtc dt:dt=""string"">2016-12-22T07:14:08Z</DateUtc></StartTime><FrequencyChanges><FrequencyChange><Frequency dt:dt=""r8"">3579545</Frequency><Timestamp dt:dt=""r8"">79208180474</Timestamp><Current dt:dt=""r8"">0</Current><DateUtc dt:dt=""string"">2016-12-22T07:14:08Z</DateUtc></FrequencyChange></FrequencyChanges></Clock>\n",2016-12-22 15:14,84.839,1,1899473078,12-22-2016,15:14:08,7:14:08,43,heed,6,4,42,,,,,,,0,,-999999,19,262976,1,2092,265068,,,,,,,,,aexppro111,block1,nv audio/heed.wav
nv,11,1,"<?xml version=""1.0""?>\n<Clock xmlns:dt=""urn:schemas-microsoft-com:datatypes""><Description dt:dt=""string"">E-Prime Primary Realtime Clock</Description><StartTime><Timestamp dt:dt=""int"">0</Timestamp><DateUtc dt:dt=""string"">2016-12-22T07:14:08Z</DateUtc></StartTime><FrequencyChanges><FrequencyChange><Frequency dt:dt=""r8"">3579545</Frequency><Timestamp dt:dt=""r8"">79208180474</Timestamp><Current dt:dt=""r8"">0</Current><DateUtc dt:dt=""string"">2016-12-22T07:14:08Z</DateUtc></FrequencyChange></FrequencyChanges></Clock>\n",2016-12-22 15:14,84.839,1,1899473078,12-22-2016,15:14:08,7:14:08,44,heard,5,4,43,,,,,,,0,,-999999,19,265593,1,1967,267560,,,,,,,,,aexppro111,block1,nv audio/heard.wav
nv,11,1,"<?xml version=""1.0""?>\n<Clock xmlns:dt=""urn:schemas-microsoft-com:datatypes""><Description dt:dt=""string"">E-Prime Primary Realtime Clock</Description><StartTime><Timestamp dt:dt=""int"">0</Timestamp><DateUtc dt:dt=""string"">2016-12-22T07:14:08Z</DateUtc></StartTime><FrequencyChanges><FrequencyChange><Frequency dt:dt=""r8"">3579545</Frequency><Timestamp dt:dt=""r8"">79208180474</Timestamp><Current dt:dt=""r8"">0</Current><DateUtc dt:dt=""string"">2016-12-22T07:14:08Z</DateUtc></FrequencyChange></FrequencyChanges></Clock>\n",2016-12-22 15:14,84.839,1,1899473078,12-22-2016,15:14:08,7:14:08,45,hood,12,4,44,,,,,,,0,,-999999,19,268092,1,1602,269694,,,,,,,,,aexppro111,block1,nv audio/whod.wav
nv,11,1,"<?xml version=""1.0""?>\n<Clock xmlns:dt=""urn:schemas-microsoft-com:datatypes""><Description dt:dt=""string"">E-Prime Primary Realtime Clock</Description><StartTime><Timestamp dt:dt=""int"">0</Timestamp><DateUtc dt:dt=""string"">2016-12-22T07:14:08Z</DateUtc></StartTime><FrequencyChanges><FrequencyChange><Frequency dt:dt=""r8"">3579545</Frequency><Timestamp dt:dt=""r8"">79208180474</Timestamp><Current dt:dt=""r8"">0</Current><DateUtc dt:dt=""string"">2016-12-22T07:14:08Z</DateUtc></FrequencyChange></FrequencyChanges></Clock>\n",2016-12-22 15:14,84.839,1,1899473078,12-22-2016,15:14:08,7:14:08,46,head,4,4,45,,,,,,,0,,-999999,19,270225,1,2392,272617,,,,,,,,,aexppro111,block1,nv audio/head.wav
nv,11,1,"<?xml version=""1.0""?>\n<Clock xmlns:dt=""urn:schemas-microsoft-com:datatypes""><Description dt:dt=""string"">E-Prime Primary Realtime Clock</Description><StartTime><Timestamp dt:dt=""int"">0</Timestamp><DateUtc dt:dt=""string"">2016-12-22T07:14:08Z</DateUtc></StartTime><FrequencyChanges><FrequencyChange><Frequency dt:dt=""r8"">3579545</Frequency><Timestamp dt:dt=""r8"">79208180474</Timestamp><Current dt:dt=""r8"">0</Current><DateUtc dt:dt=""string"">2016-12-22T07:14:08Z</DateUtc></FrequencyChange></FrequencyChanges></Clock>\n",2016-12-22 15:14,84.839,1,1899473078,12-22-2016,15:14:08,7:14:08,47,hayed,7,4,46,,,,,,,0,,-999999,18,273148,1,1818,274966,,,,,,,,,aexppro111,block1,nv audio/hid.wav
nv,11,1,"<?xml version=""1.0""?>\n<Clock xmlns:dt=""urn:schemas-microsoft-com:datatypes""><Description dt:dt=""string"">E-Prime Primary Realtime Clock</Description><StartTime><Timestamp dt:dt=""int"">0</Timestamp><DateUtc dt:dt=""string"">2016-12-22T07:14:08Z</DateUtc></StartTime><FrequencyChanges><FrequencyChange><Frequency dt:dt=""r8"">3579545</Frequency><Timestamp dt:dt=""r8"">79208180474</Timestamp><Current dt:dt=""r8"">0</Current><DateUtc dt:dt=""string"">2016-12-22T07:14:08Z</DateUtc></FrequencyChange></FrequencyChanges></Clock>\n",2016-12-22 15:14,84.839,1,1899473078,12-22-2016,15:14:08,7:14:08,48,hood,10,4,47,,,,,,,0,,-999999,19,275494,1,1571,277065,,,,,,,,,aexppro111,block1,nv audio/hood.wav
nv,11,1,"<?xml version=""1.0""?>\n<Clock xmlns:dt=""urn:schemas-microsoft-com:datatypes""><Description dt:dt=""string"">E-Prime Primary Realtime Clock</Description><StartTime><Timestamp dt:dt=""int"">0</Timestamp><DateUtc dt:dt=""string"">2016-12-22T07:14:08Z</DateUtc></StartTime><FrequencyChanges><FrequencyChange><Frequency dt:dt=""r8"">3579545</Frequency><Timestamp dt:dt=""r8"">79208180474</Timestamp><Current dt:dt=""r8"">0</Current><DateUtc dt:dt=""string"">2016-12-22T07:14:08Z</DateUtc></FrequencyChange></FrequencyChanges></Clock>\n",2016-12-22 15:14,84.839,1,1899473078,12-22-2016,15:14:08,7:14:08,49,hod,2,4,48,,,,,,,0,,-999999,19,277592,1,2724,280316,,,,,,,,,aexppro111,block1,nv audio/hawed.wav
nv,11,1,"<?xml version=""1.0""?>\n<Clock xmlns:dt=""urn:schemas-microsoft-com:datatypes""><Description dt:dt=""string"">E-Prime Primary Realtime Clock</Description><StartTime><Timestamp dt:dt=""int"">0</Timestamp><DateUtc dt:dt=""string"">2016-12-22T07:14:08Z</DateUtc></StartTime><FrequencyChanges><FrequencyChange><Frequency dt:dt=""r8"">3579545</Frequency><Timestamp dt:dt=""r8"">79208180474</Timestamp><Current dt:dt=""r8"">0</Current><DateUtc dt:dt=""string"">2016-12-22T07:14:08Z</DateUtc></FrequencyChange></FrequencyChanges></Clock>\n",2016-12-22 15:14,84.839,1,1899473078,12-22-2016,15:14:08,7:14:08,50,heed,6,5,49,,,,,,,0,,-999999,30,280857,1,2073,282930,,,,,,,,,aexppro111,block1,nv audio/heed.wav
nv,11,1,"<?xml version=""1.0""?>\n<Clock xmlns:dt=""urn:schemas-microsoft-com:datatypes""><Description dt:dt=""string"">E-Prime Primary Realtime Clock</Description><StartTime><Timestamp dt:dt=""int"">0</Timestamp><DateUtc dt:dt=""string"">2016-12-22T07:14:08Z</DateUtc></StartTime><FrequencyChanges><FrequencyChange><Frequency dt:dt=""r8"">3579545</Frequency><Timestamp dt:dt=""r8"">79208180474</Timestamp><Current dt:dt=""r8"">0</Current><DateUtc dt:dt=""string"">2016-12-22T07:14:08Z</DateUtc></FrequencyChange></FrequencyChanges></Clock>\n",2016-12-22 15:14,84.839,1,1899473078,12-22-2016,15:14:08,7:14:08,51,heard,11,5,50,,,,,,,0,,-999999,19,283462,1,1555,285017,,,,,,,,,aexppro111,block1,nv audio/hud.wav
nv,11,1,"<?xml version=""1.0""?>\n<Clock xmlns:dt=""urn:schemas-microsoft-com:datatypes""><Description dt:dt=""string"">E-Prime Primary Realtime Clock</Description><StartTime><Timestamp dt:dt=""int"">0</Timestamp><DateUtc dt:dt=""string"">2016-12-22T07:14:08Z</DateUtc></StartTime><FrequencyChanges><FrequencyChange><Frequency dt:dt=""r8"">3579545</Frequency><Timestamp dt:dt=""r8"">79208180474</Timestamp><Current dt:dt=""r8"">0</Current><DateUtc dt:dt=""string"">2016-12-22T07:14:08Z</DateUtc></FrequencyChange></FrequencyChanges></Clock>\n",2016-12-22 15:14,84.839,1,1899473078,12-22-2016,15:14:08,7:14:08,52,hood,12,5,51,,,,,,,0,,-999999,30,285560,1,1972,287532,,,,,,,,,aexppro111,block1,nv audio/whod.wav
nv,11,1,"<?xml version=""1.0""?>\n<Clock xmlns:dt=""urn:schemas-microsoft-com:datatypes""><Description dt:dt=""string"">E-Prime Primary Realtime Clock</Description><StartTime><Timestamp dt:dt=""int"">0</Timestamp><DateUtc dt:dt=""string"">2016-12-22T07:14:08Z</DateUtc></StartTime><FrequencyChanges><FrequencyChange><Frequency dt:dt=""r8"">3579545</Frequency><Timestamp dt:dt=""r8"">79208180474</Timestamp><Current dt:dt=""r8"">0</Current><DateUtc dt:dt=""string"">2016-12-22T07:14:08Z</DateUtc></FrequencyChange></FrequencyChanges></Clock>\n",2016-12-22 15:14,84.839,1,1899473078,12-22-2016,15:14:08,7:14:08,53,hayed,3,5,52,,,,,,,0,,-999999,19,288059,1,999,289058,,,,,,,,,aexppro111,block1,nv audio/hayed.wav
nv,11,1,"<?xml version=""1.0""?>\n<Clock xmlns:dt=""urn:schemas-microsoft-com:datatypes""><Description dt:dt=""string"">E-Prime Primary Realtime Clock</Description><StartTime><Timestamp dt:dt=""int"">0</Timestamp><DateUtc dt:dt=""string"">2016-12-22T07:14:08Z</DateUtc></StartTime><FrequencyChanges><FrequencyChange><Frequency dt:dt=""r8"">3579545</Frequency><Timestamp dt:dt=""r8"">79208180474</Timestamp><Current dt:dt=""r8"">0</Current><DateUtc dt:dt=""string"">2016-12-22T07:14:08Z</DateUtc></FrequencyChange></FrequencyChanges></Clock>\n",2016-12-22 15:14,84.839,1,1899473078,12-22-2016,15:14:08,7:14:08,54,hod,9,5,53,,,,,,,0,,-999999,18,289591,1,4359,293950,,,,,,,,,aexppro111,block1,nv audio/hoed.wav
nv,11,1,"<?xml version=""1.0""?>\n<Clock xmlns:dt=""urn:schemas-microsoft-com:datatypes""><Description dt:dt=""string"">E-Prime Primary Realtime Clock</Description><StartTime><Timestamp dt:dt=""int"">0</Timestamp><DateUtc dt:dt=""string"">2016-12-22T07:14:08Z</DateUtc></StartTime><FrequencyChanges><FrequencyChange><Frequency dt:dt=""r8"">3579545</Frequency><Timestamp dt:dt=""r8"">79208180474</Timestamp><Current dt:dt=""r8"">0</Current><DateUtc dt:dt=""string"">2016-12-22T07:14:08Z</DateUtc></FrequencyChange></FrequencyChanges></Clock>\n",2016-12-22 15:14,84.839,1,1899473078,12-22-2016,15:14:08,7:14:08,55,head,1,5,54,,,,,,,0,,-999999,19,294483,1,2383,296866,,,,,,,,,aexppro111,block1,nv audio/had.wav
nv,11,1,"<?xml version=""1.0""?>\n<Clock xmlns:dt=""urn:schemas-microsoft-com:datatypes""><Description dt:dt=""string"">E-Prime Primary Realtime Clock</Description><StartTime><Timestamp dt:dt=""int"">0</Timestamp><DateUtc dt:dt=""string"">2016-12-22T07:14:08Z</DateUtc></StartTime><FrequencyChanges><FrequencyChange><Frequency dt:dt=""r8"">3579545</Frequency><Timestamp dt:dt=""r8"">79208180474</Timestamp><Current dt:dt=""r8"">0</Current><DateUtc dt:dt=""string"">2016-12-22T07:14:08Z</DateUtc></FrequencyChange></FrequencyChanges></Clock>\n",2016-12-22 15:14,84.839,1,1899473078,12-22-2016,15:14:08,7:14:08,56,hod,8,5,55,,,,,,,0,,-999999,30,297406,1,4363,301769,,,,,,,,,aexppro111,block1,nv audio/hod.wav
nv,11,1,"<?xml version=""1.0""?>\n<Clock xmlns:dt=""urn:schemas-microsoft-com:datatypes""><Description dt:dt=""string"">E-Prime Primary Realtime Clock</Description><StartTime><Timestamp dt:dt=""int"">0</Timestamp><DateUtc dt:dt=""string"">2016-12-22T07:14:08Z</DateUtc></StartTime><FrequencyChanges><FrequencyChange><Frequency dt:dt=""r8"">3579545</Frequency><Timestamp dt:dt=""r8"">79208180474</Timestamp><Current dt:dt=""r8"">0</Current><DateUtc dt:dt=""string"">2016-12-22T07:14:08Z</DateUtc></FrequencyChange></FrequencyChanges></Clock>\n",2016-12-22 15:14,84.839,1,1899473078,12-22-2016,15:14:08,7:14:08,57,hood,10,5,56,,,,,,,0,,-999999,31,302310,1,1636,303946,,,,,,,,,aexppro111,block1,nv audio/hood.wav
nv,11,1,"<?xml version=""1.0""?>\n<Clock xmlns:dt=""urn:schemas-microsoft-com:datatypes""><Description dt:dt=""string"">E-Prime Primary Realtime Clock</Description><StartTime><Timestamp dt:dt=""int"">0</Timestamp><DateUtc dt:dt=""string"">2016-12-22T07:14:08Z</DateUtc></StartTime><FrequencyChanges><FrequencyChange><Frequency dt:dt=""r8"">3579545</Frequency><Timestamp dt:dt=""r8"">79208180474</Timestamp><Current dt:dt=""r8"">0</Current><DateUtc dt:dt=""string"">2016-12-22T07:14:08Z</DateUtc></FrequencyChange></FrequencyChanges></Clock>\n",2016-12-22 15:14,84.839,1,1899473078,12-22-2016,15:14:08,7:14:08,58,heed,7,5,57,,,,,,,0,,-999999,18,304478,1,1956,306434,,,,,,,,,aexppro111,block1,nv audio/hid.wav
nv,11,1,"<?xml version=""1.0""?>\n<Clock xmlns:dt=""urn:schemas-microsoft-com:datatypes""><Description dt:dt=""string"">E-Prime Primary Realtime Clock</Description><StartTime><Timestamp dt:dt=""int"">0</Timestamp><DateUtc dt:dt=""string"">2016-12-22T07:14:08Z</DateUtc></StartTime><FrequencyChanges><FrequencyChange><Frequency dt:dt=""r8"">3579545</Frequency><Timestamp dt:dt=""r8"">79208180474</Timestamp><Current dt:dt=""r8"">0</Current><DateUtc dt:dt=""string"">2016-12-22T07:14:08Z</DateUtc></FrequencyChange></FrequencyChanges></Clock>\n",2016-12-22 15:14,84.839,1,1899473078,12-22-2016,15:14:08,7:14:08,59,hoed,2,5,58,,,,,,,0,,-999999,18,306965,1,2518,309483,,,,,,,,,aexppro111,block1,nv audio/hawed.wav
nv,11,1,"<?xml version=""1.0""?>\n<Clock xmlns:dt=""urn:schemas-microsoft-com:datatypes""><Description dt:dt=""string"">E-Prime Primary Realtime Clock</Description><StartTime><Timestamp dt:dt=""int"">0</Timestamp><DateUtc dt:dt=""string"">2016-12-22T07:14:08Z</DateUtc></StartTime><FrequencyChanges><FrequencyChange><Frequency dt:dt=""r8"">3579545</Frequency><Timestamp dt:dt=""r8"">79208180474</Timestamp><Current dt:dt=""r8"">0</Current><DateUtc dt:dt=""string"">2016-12-22T07:14:08Z</DateUtc></FrequencyChange></FrequencyChanges></Clock>\n",2016-12-22 15:14,84.839,1,1899473078,12-22-2016,15:14:08,7:14:08,60,heard,5,5,59,,,,,,,0,,-999999,19,310007,1,988,310995,,,,,,,,,aexppro111,block1,nv audio/heard.wav
nv,11,1,"<?xml version=""1.0""?>\n<Clock xmlns:dt=""urn:schemas-microsoft-com:datatypes""><Description dt:dt=""string"">E-Prime Primary Realtime Clock</Description><StartTime><Timestamp dt:dt=""int"">0</Timestamp><DateUtc dt:dt=""string"">2016-12-22T07:14:08Z</DateUtc></StartTime><FrequencyChanges><FrequencyChange><Frequency dt:dt=""r8"">3579545</Frequency><Timestamp dt:dt=""r8"">79208180474</Timestamp><Current dt:dt=""r8"">0</Current><DateUtc dt:dt=""string"">2016-12-22T07:14:08Z</DateUtc></FrequencyChange></FrequencyChanges></Clock>\n",2016-12-22 15:14,84.839,1,1899473078,12-22-2016,15:14:08,7:14:08,61,head,4,5,60,,,,,,,0,,-999999,19,311527,1,1196,312723,,,,,,,,,aexppro111,block1,nv audio/head.wav
nv,11,1,"<?xml version=""1.0""?>\n<Clock xmlns:dt=""urn:schemas-microsoft-com:datatypes""><Description dt:dt=""string"">E-Prime Primary Realtime Clock</Description><StartTime><Timestamp dt:dt=""int"">0</Timestamp><DateUtc dt:dt=""string"">2016-12-22T07:14:08Z</DateUtc></StartTime><FrequencyChanges><FrequencyChange><Frequency dt:dt=""r8"">3579545</Frequency><Timestamp dt:dt=""r8"">79208180474</Timestamp><Current dt:dt=""r8"">0</Current><DateUtc dt:dt=""string"">2016-12-22T07:14:08Z</DateUtc></FrequencyChange></FrequencyChanges></Clock>\n",2016-12-22 15:14,84.839,1,1899473078,12-22-2016,15:14:08,7:14:08,62,head,4,6,61,,,,,,,0,,-999999,19,313248,1,820,314068,,,,,,,,,aexppro111,block1,nv audio/head.wav
nv,11,1,"<?xml version=""1.0""?>\n<Clock xmlns:dt=""urn:schemas-microsoft-com:datatypes""><Description dt:dt=""string"">E-Prime Primary Realtime Clock</Description><StartTime><Timestamp dt:dt=""int"">0</Timestamp><DateUtc dt:dt=""string"">2016-12-22T07:14:08Z</DateUtc></StartTime><FrequencyChanges><FrequencyChange><Frequency dt:dt=""r8"">3579545</Frequency><Timestamp dt:dt=""r8"">79208180474</Timestamp><Current dt:dt=""r8"">0</Current><DateUtc dt:dt=""string"">2016-12-22T07:14:08Z</DateUtc></FrequencyChange></FrequencyChanges></Clock>\n",2016-12-22 15:14,84.839,1,1899473078,12-22-2016,15:14:08,7:14:08,63,hod,2,6,62,,,,,,,0,,-999999,19,314592,1,2055,316647,,,,,,,,,aexppro111,block1,nv audio/hawed.wav
nv,11,1,"<?xml version=""1.0""?>\n<Clock xmlns:dt=""urn:schemas-microsoft-com:datatypes""><Description dt:dt=""string"">E-Prime Primary Realtime Clock</Description><StartTime><Timestamp dt:dt=""int"">0</Timestamp><DateUtc dt:dt=""string"">2016-12-22T07:14:08Z</DateUtc></StartTime><FrequencyChanges><FrequencyChange><Frequency dt:dt=""r8"">3579545</Frequency><Timestamp dt:dt=""r8"">79208180474</Timestamp><Current dt:dt=""r8"">0</Current><DateUtc dt:dt=""string"">2016-12-22T07:14:08Z</DateUtc></FrequencyChange></FrequencyChanges></Clock>\n",2016-12-22 15:14,84.839,1,1899473078,12-22-2016,15:14:08,7:14:08,64,heard,11,6,63,,,,,,,0,,-999999,31,317185,1,1990,319175,,,,,,,,,aexppro111,block1,nv audio/hud.wav
nv,11,1,"<?xml version=""1.0""?>\n<Clock xmlns:dt=""urn:schemas-microsoft-com:datatypes""><Description dt:dt=""string"">E-Prime Primary Realtime Clock</Description><StartTime><Timestamp dt:dt=""int"">0</Timestamp><DateUtc dt:dt=""string"">2016-12-22T07:14:08Z</DateUtc></StartTime><FrequencyChanges><FrequencyChange><Frequency dt:dt=""r8"">3579545</Frequency><Timestamp dt:dt=""r8"">79208180474</Timestamp><Current dt:dt=""r8"">0</Current><DateUtc dt:dt=""string"">2016-12-22T07:14:08Z</DateUtc></FrequencyChange></FrequencyChanges></Clock>\n",2016-12-22 15:14,84.839,1,1899473078,12-22-2016,15:14:08,7:14:08,65,heed,6,6,64,,,,,,,0,,-999999,30,319719,1,1113,320832,,,,,,,,,aexppro111,block1,nv audio/heed.wav
nv,11,1,"<?xml version=""1.0""?>\n<Clock xmlns:dt=""urn:schemas-microsoft-com:datatypes""><Description dt:dt=""string"">E-Prime Primary Realtime Clock</Description><StartTime><Timestamp dt:dt=""int"">0</Timestamp><DateUtc dt:dt=""string"">2016-12-22T07:14:08Z</DateUtc></StartTime><FrequencyChanges><FrequencyChange><Frequency dt:dt=""r8"">3579545</Frequency><Timestamp dt:dt=""r8"">79208180474</Timestamp><Current dt:dt=""r8"">0</Current><DateUtc dt:dt=""string"">2016-12-22T07:14:08Z</DateUtc></FrequencyChange></FrequencyChanges></Clock>\n",2016-12-22 15:14,84.839,1,1899473078,12-22-2016,15:14:08,7:14:08,66,hood,12,6,65,,,,,,,0,,-999999,18,321357,1,2200,323557,,,,,,,,,aexppro111,block1,nv audio/whod.wav
nv,11,1,"<?xml version=""1.0""?>\n<Clock xmlns:dt=""urn:schemas-microsoft-com:datatypes""><Description dt:dt=""string"">E-Prime Primary Realtime Clock</Description><StartTime><Timestamp dt:dt=""int"">0</Timestamp><DateUtc dt:dt=""string"">2016-12-22T07:14:08Z</DateUtc></StartTime><FrequencyChanges><FrequencyChange><Frequency dt:dt=""r8"">3579545</Frequency><Timestamp dt:dt=""r8"">79208180474</Timestamp><Current dt:dt=""r8"">0</Current><DateUtc dt:dt=""string"">2016-12-22T07:14:08Z</DateUtc></FrequencyChange></FrequencyChanges></Clock>\n",2016-12-22 15:14,84.839,1,1899473078,12-22-2016,15:14:08,7:14:08,67,hayed,3,6,66,,,,,,,0,,-999999,30,324092,1,1071,325163,,,,,,,,,aexppro111,block1,nv audio/hayed.wav
nv,11,1,"<?xml version=""1.0""?>\n<Clock xmlns:dt=""urn:schemas-microsoft-com:datatypes""><Description dt:dt=""string"">E-Prime Primary Realtime Clock</Description><StartTime><Timestamp dt:dt=""int"">0</Timestamp><DateUtc dt:dt=""string"">2016-12-22T07:14:08Z</DateUtc></StartTime><FrequencyChanges><FrequencyChange><Frequency dt:dt=""r8"">3579545</Frequency><Timestamp dt:dt=""r8"">79208180474</Timestamp><Current dt:dt=""r8"">0</Current><DateUtc dt:dt=""string"">2016-12-22T07:14:08Z</DateUtc></FrequencyChange></FrequencyChanges></Clock>\n",2016-12-22 15:14,84.839,1,1899473078,12-22-2016,15:14:08,7:14:08,68,hud,1,6,67,,,,,,,0,,-999999,18,325695,1,1435,327130,,,,,,,,,aexppro111,block1,nv audio/had.wav
nv,11,1,"<?xml version=""1.0""?>\n<Clock xmlns:dt=""urn:schemas-microsoft-com:datatypes""><Description dt:dt=""string"">E-Prime Primary Realtime Clock</Description><StartTime><Timestamp dt:dt=""int"">0</Timestamp><DateUtc dt:dt=""string"">2016-12-22T07:14:08Z</DateUtc></StartTime><FrequencyChanges><FrequencyChange><Frequency dt:dt=""r8"">3579545</Frequency><Timestamp dt:dt=""r8"">79208180474</Timestamp><Current dt:dt=""r8"">0</Current><DateUtc dt:dt=""string"">2016-12-22T07:14:08Z</DateUtc></FrequencyChange></FrequencyChanges></Clock>\n",2016-12-22 15:14,84.839,1,1899473078,12-22-2016,15:14:08,7:14:08,69,hoed,9,6,68,,,,,,,0,,-999999,19,327652,1,1352,329004,,,,,,,,,aexppro111,block1,nv audio/hoed.wav
nv,11,1,"<?xml version=""1.0""?>\n<Clock xmlns:dt=""urn:schemas-microsoft-com:datatypes""><Description dt:dt=""string"">E-Prime Primary Realtime Clock</Description><StartTime><Timestamp dt:dt=""int"">0</Timestamp><DateUtc dt:dt=""string"">2016-12-22T07:14:08Z</DateUtc></StartTime><FrequencyChanges><FrequencyChange><Frequency dt:dt=""r8"">3579545</Frequency><Timestamp dt:dt=""r8"">79208180474</Timestamp><Current dt:dt=""r8"">0</Current><DateUtc dt:dt=""string"">2016-12-22T07:14:08Z</DateUtc></FrequencyChange></FrequencyChanges></Clock>\n",2016-12-22 15:14,84.839,1,1899473078,12-22-2016,15:14:08,7:14:08,70,hawed,8,6,69,,,,,,,0,,-999999,19,329526,1,2216,331742,,,,,,,,,aexppro111,block1,nv audio/hod.wav
nv,11,1,"<?xml version=""1.0""?>\n<Clock xmlns:dt=""urn:schemas-microsoft-com:datatypes""><Description dt:dt=""string"">E-Prime Primary Realtime Clock</Description><StartTime><Timestamp dt:dt=""int"">0</Timestamp><DateUtc dt:dt=""string"">2016-12-22T07:14:08Z</DateUtc></StartTime><FrequencyChanges><FrequencyChange><Frequency dt:dt=""r8"">3579545</Frequency><Timestamp dt:dt=""r8"">79208180474</Timestamp><Current dt:dt=""r8"">0</Current><DateUtc dt:dt=""string"">2016-12-22T07:14:08Z</DateUtc></FrequencyChange></FrequencyChanges></Clock>\n",2016-12-22 15:14,84.839,1,1899473078,12-22-2016,15:14:08,7:14:08,71,hood,10,6,70,,,,,,,0,,-999999,18,332272,1,2814,335086,,,,,,,,,aexppro111,block1,nv audio/hood.wav
nv,11,1,"<?xml version=""1.0""?>\n<Clock xmlns:dt=""urn:schemas-microsoft-com:datatypes""><Description dt:dt=""string"">E-Prime Primary Realtime Clock</Description><StartTime><Timestamp dt:dt=""int"">0</Timestamp><DateUtc dt:dt=""string"">2016-12-22T07:14:08Z</DateUtc></StartTime><FrequencyChanges><FrequencyChange><Frequency dt:dt=""r8"">3579545</Frequency><Timestamp dt:dt=""r8"">79208180474</Timestamp><Current dt:dt=""r8"">0</Current><DateUtc dt:dt=""string"">2016-12-22T07:14:08Z</DateUtc></FrequencyChange></FrequencyChanges></Clock>\n",2016-12-22 15:14,84.839,1,1899473078,12-22-2016,15:14:08,7:14:08,72,hayed,7,6,71,,,,,,,0,,-999999,42,335632,1,1896,337528,,,,,,,,,aexppro111,block1,nv audio/hid.wav
nv,11,1,"<?xml version=""1.0""?>\n<Clock xmlns:dt=""urn:schemas-microsoft-com:datatypes""><Description dt:dt=""string"">E-Prime Primary Realtime Clock</Description><StartTime><Timestamp dt:dt=""int"">0</Timestamp><DateUtc dt:dt=""string"">2016-12-22T07:14:08Z</DateUtc></StartTime><FrequencyChanges><FrequencyChange><Frequency dt:dt=""r8"">3579545</Frequency><Timestamp dt:dt=""r8"">79208180474</Timestamp><Current dt:dt=""r8"">0</Current><DateUtc dt:dt=""string"">2016-12-22T07:14:08Z</DateUtc></FrequencyChange></FrequencyChanges></Clock>\n",2016-12-22 15:14,84.839,1,1899473078,12-22-2016,15:14:08,7:14:08,73,heard,5,6,72,,,,,,,0,,-999999,19,338060,1,1523,339583,,,,,,,,,aexppro111,block1,nv audio/heard.wav
nv,11,1,"<?xml version=""1.0""?>\n<Clock xmlns:dt=""urn:schemas-microsoft-com:datatypes""><Description dt:dt=""string"">E-Prime Primary Realtime Clock</Description><StartTime><Timestamp dt:dt=""int"">0</Timestamp><DateUtc dt:dt=""string"">2016-12-22T07:14:08Z</DateUtc></StartTime><FrequencyChanges><FrequencyChange><Frequency dt:dt=""r8"">3579545</Frequency><Timestamp dt:dt=""r8"">79208180474</Timestamp><Current dt:dt=""r8"">0</Current><DateUtc dt:dt=""string"">2016-12-22T07:14:08Z</DateUtc></FrequencyChange></FrequencyChanges></Clock>\n",2016-12-22 15:14,84.839,1,1899473078,12-22-2016,15:14:08,7:14:08,74,hid,7,7,73,,,,,,,0,,-999999,31,340123,1,2774,342897,,,,,,,,,aexppro111,block1,nv audio/hid.wav
nv,11,1,"<?xml version=""1.0""?>\n<Clock xmlns:dt=""urn:schemas-microsoft-com:datatypes""><Description dt:dt=""string"">E-Prime Primary Realtime Clock</Description><StartTime><Timestamp dt:dt=""int"">0</Timestamp><DateUtc dt:dt=""string"">2016-12-22T07:14:08Z</DateUtc></StartTime><FrequencyChanges><FrequencyChange><Frequency dt:dt=""r8"">3579545</Frequency><Timestamp dt:dt=""r8"">79208180474</Timestamp><Current dt:dt=""r8"">0</Current><DateUtc dt:dt=""string"">2016-12-22T07:14:08Z</DateUtc></FrequencyChange></FrequencyChanges></Clock>\n",2016-12-22 15:14,84.839,1,1899473078,12-22-2016,15:14:08,7:14:08,75,hood,12,7,74,,,,,,,0,,-999999,31,343435,1,1902,345337,,,,,,,,,aexppro111,block1,nv audio/whod.wav
nv,11,1,"<?xml version=""1.0""?>\n<Clock xmlns:dt=""urn:schemas-microsoft-com:datatypes""><Description dt:dt=""string"">E-Prime Primary Realtime Clock</Description><StartTime><Timestamp dt:dt=""int"">0</Timestamp><DateUtc dt:dt=""string"">2016-12-22T07:14:08Z</DateUtc></StartTime><FrequencyChanges><FrequencyChange><Frequency dt:dt=""r8"">3579545</Frequency><Timestamp dt:dt=""r8"">79208180474</Timestamp><Current dt:dt=""r8"">0</Current><DateUtc dt:dt=""string"">2016-12-22T07:14:08Z</DateUtc></FrequencyChange></FrequencyChanges></Clock>\n",2016-12-22 15:14,84.839,1,1899473078,12-22-2016,15:14:08,7:14:08,76,hod,8,7,75,,,,,,,0,,-999999,31,345875,1,1844,347719,,,,,,,,,aexppro111,block1,nv audio/hod.wav
nv,11,1,"<?xml version=""1.0""?>\n<Clock xmlns:dt=""urn:schemas-microsoft-com:datatypes""><Description dt:dt=""string"">E-Prime Primary Realtime Clock</Description><StartTime><Timestamp dt:dt=""int"">0</Timestamp><DateUtc dt:dt=""string"">2016-12-22T07:14:08Z</DateUtc></StartTime><FrequencyChanges><FrequencyChange><Frequency dt:dt=""r8"">3579545</Frequency><Timestamp dt:dt=""r8"">79208180474</Timestamp><Current dt:dt=""r8"">0</Current><DateUtc dt:dt=""string"">2016-12-22T07:14:08Z</DateUtc></FrequencyChange></FrequencyChanges></Clock>\n",2016-12-22 15:14,84.839,1,1899473078,12-22-2016,15:14:08,7:14:08,77,hod,2,7,76,,,,,,,0,,-999999,19,348244,1,1919,350163,,,,,,,,,aexppro111,block1,nv audio/hawed.wav
nv,11,1,"<?xml version=""1.0""?>\n<Clock xmlns:dt=""urn:schemas-microsoft-com:datatypes""><Description dt:dt=""string"">E-Prime Primary Realtime Clock</Description><StartTime><Timestamp dt:dt=""int"">0</Timestamp><DateUtc dt:dt=""string"">2016-12-22T07:14:08Z</DateUtc></StartTime><FrequencyChanges><FrequencyChange><Frequency dt:dt=""r8"">3579545</Frequency><Timestamp dt:dt=""r8"">79208180474</Timestamp><Current dt:dt=""r8"">0</Current><DateUtc dt:dt=""string"">2016-12-22T07:14:08Z</DateUtc></FrequencyChange></FrequencyChanges></Clock>\n",2016-12-22 15:14,84.839,1,1899473078,12-22-2016,15:14:08,7:14:08,78,hood,10,7,77,,,,,,,0,,-999999,19,350696,1,2508,353204,,,,,,,,,aexppro111,block1,nv audio/hood.wav
nv,11,1,"<?xml version=""1.0""?>\n<Clock xmlns:dt=""urn:schemas-microsoft-com:datatypes""><Description dt:dt=""string"">E-Prime Primary Realtime Clock</Description><StartTime><Timestamp dt:dt=""int"">0</Timestamp><DateUtc dt:dt=""string"">2016-12-22T07:14:08Z</DateUtc></StartTime><FrequencyChanges><FrequencyChange><Frequency dt:dt=""r8"">3579545</Frequency><Timestamp dt:dt=""r8"">79208180474</Timestamp><Current dt:dt=""r8"">0</Current><DateUtc dt:dt=""string"">2016-12-22T07:14:08Z</DateUtc></FrequencyChange></FrequencyChanges></Clock>\n",2016-12-22 15:14,84.839,1,1899473078,12-22-2016,15:14:08,7:14:08,79,head,1,7,78,,,,,,,0,,-999999,30,353748,1,2545,356293,,,,,,,,,aexppro111,block1,nv audio/had.wav
nv,11,1,"<?xml version=""1.0""?>\n<Clock xmlns:dt=""urn:schemas-microsoft-com:datatypes""><Description dt:dt=""string"">E-Prime Primary Realtime Clock</Description><StartTime><Timestamp dt:dt=""int"">0</Timestamp><DateUtc dt:dt=""string"">2016-12-22T07:14:08Z</DateUtc></StartTime><FrequencyChanges><FrequencyChange><Frequency dt:dt=""r8"">3579545</Frequency><Timestamp dt:dt=""r8"">79208180474</Timestamp><Current dt:dt=""r8"">0</Current><DateUtc dt:dt=""string"">2016-12-22T07:14:08Z</DateUtc></FrequencyChange></FrequencyChanges></Clock>\n",2016-12-22 15:14,84.839,1,1899473078,12-22-2016,15:14:08,7:14:08,80,heard,5,7,79,,,,,,,0,,-999999,19,356825,1,853,357678,,,,,,,,,aexppro111,block1,nv audio/heard.wav
nv,11,1,"<?xml version=""1.0""?>\n<Clock xmlns:dt=""urn:schemas-microsoft-com:datatypes""><Description dt:dt=""string"">E-Prime Primary Realtime Clock</Description><StartTime><Timestamp dt:dt=""int"">0</Timestamp><DateUtc dt:dt=""string"">2016-12-22T07:14:08Z</DateUtc></StartTime><FrequencyChanges><FrequencyChange><Frequency dt:dt=""r8"">3579545</Frequency><Timestamp dt:dt=""r8"">79208180474</Timestamp><Current dt:dt=""r8"">0</Current><DateUtc dt:dt=""string"">2016-12-22T07:14:08Z</DateUtc></FrequencyChange></FrequencyChanges></Clock>\n",2016-12-22 15:14,84.839,1,1899473078,12-22-2016,15:14:08,7:14:08,81,heard,11,7,80,,,,,,,0,,-999999,31,358216,1,2045,360261,,,,,,,,,aexppro111,block1,nv audio/hud.wav
nv,11,1,"<?xml version=""1.0""?>\n<Clock xmlns:dt=""urn:schemas-microsoft-com:datatypes""><Description dt:dt=""string"">E-Prime Primary Realtime Clock</Description><StartTime><Timestamp dt:dt=""int"">0</Timestamp><DateUtc dt:dt=""string"">2016-12-22T07:14:08Z</DateUtc></StartTime><FrequencyChanges><FrequencyChange><Frequency dt:dt=""r8"">3579545</Frequency><Timestamp dt:dt=""r8"">79208180474</Timestamp><Current dt:dt=""r8"">0</Current><DateUtc dt:dt=""string"">2016-12-22T07:14:08Z</DateUtc></FrequencyChange></FrequencyChanges></Clock>\n",2016-12-22 15:14,84.839,1,1899473078,12-22-2016,15:14:08,7:14:08,82,hayed,3,7,81,,,,,,,0,,-999999,30,360797,1,1550,362347,,,,,,,,,aexppro111,block1,nv audio/hayed.wav
nv,11,1,"<?xml version=""1.0""?>\n<Clock xmlns:dt=""urn:schemas-microsoft-com:datatypes""><Description dt:dt=""string"">E-Prime Primary Realtime Clock</Description><StartTime><Timestamp dt:dt=""int"">0</Timestamp><DateUtc dt:dt=""string"">2016-12-22T07:14:08Z</DateUtc></StartTime><FrequencyChanges><FrequencyChange><Frequency dt:dt=""r8"">3579545</Frequency><Timestamp dt:dt=""r8"">79208180474</Timestamp><Current dt:dt=""r8"">0</Current><DateUtc dt:dt=""string"">2016-12-22T07:14:08Z</DateUtc></FrequencyChange></FrequencyChanges></Clock>\n",2016-12-22 15:14,84.839,1,1899473078,12-22-2016,15:14:08,7:14:08,83,head,4,7,82,,,,,,,0,,-999999,19,362872,1,1274,364146,,,,,,,,,aexppro111,block1,nv audio/head.wav
nv,11,1,"<?xml version=""1.0""?>\n<Clock xmlns:dt=""urn:schemas-microsoft-com:datatypes""><Description dt:dt=""string"">E-Prime Primary Realtime Clock</Description><StartTime><Timestamp dt:dt=""int"">0</Timestamp><DateUtc dt:dt=""string"">2016-12-22T07:14:08Z</DateUtc></StartTime><FrequencyChanges><FrequencyChange><Frequency dt:dt=""r8"">3579545</Frequency><Timestamp dt:dt=""r8"">79208180474</Timestamp><Current dt:dt=""r8"">0</Current><DateUtc dt:dt=""string"">2016-12-22T07:14:08Z</DateUtc></FrequencyChange></FrequencyChanges></Clock>\n",2016-12-22 15:14,84.839,1,1899473078,12-22-2016,15:14:08,7:14:08,84,heed,6,7,83,,,,,,,0,,-999999,31,364687,1,2456,367143,,,,,,,,,aexppro111,block1,nv audio/heed.wav
nv,11,1,"<?xml version=""1.0""?>\n<Clock xmlns:dt=""urn:schemas-microsoft-com:datatypes""><Description dt:dt=""string"">E-Prime Primary Realtime Clock</Description><StartTime><Timestamp dt:dt=""int"">0</Timestamp><DateUtc dt:dt=""string"">2016-12-22T07:14:08Z</DateUtc></StartTime><FrequencyChanges><FrequencyChange><Frequency dt:dt=""r8"">3579545</Frequency><Timestamp dt:dt=""r8"">79208180474</Timestamp><Current dt:dt=""r8"">0</Current><DateUtc dt:dt=""string"">2016-12-22T07:14:08Z</DateUtc></FrequencyChange></FrequencyChanges></Clock>\n",2016-12-22 15:14,84.839,1,1899473078,12-22-2016,15:14:08,7:14:08,85,hoed,9,7,84,,,,,,,0,,-999999,19,367669,1,1034,368703,,,,,,,,,aexppro111,block1,nv audio/hoed.wav
nv,11,1,"<?xml version=""1.0""?>\n<Clock xmlns:dt=""urn:schemas-microsoft-com:datatypes""><Description dt:dt=""string"">E-Prime Primary Realtime Clock</Description><StartTime><Timestamp dt:dt=""int"">0</Timestamp><DateUtc dt:dt=""string"">2016-12-22T07:14:08Z</DateUtc></StartTime><FrequencyChanges><FrequencyChange><Frequency dt:dt=""r8"">3579545</Frequency><Timestamp dt:dt=""r8"">79208180474</Timestamp><Current dt:dt=""r8"">0</Current><DateUtc dt:dt=""string"">2016-12-22T07:14:08Z</DateUtc></FrequencyChange></FrequencyChanges></Clock>\n",2016-12-22 15:14,84.839,1,1899473078,12-22-2016,15:14:08,7:14:08,86,hud,7,8,85,,,,,,,0,,-999999,18,369225,1,2550,371775,,,,,,,,,aexppro111,block1,nv audio/hid.wav
nv,11,1,"<?xml version=""1.0""?>\n<Clock xmlns:dt=""urn:schemas-microsoft-com:datatypes""><Description dt:dt=""string"">E-Prime Primary Realtime Clock</Description><StartTime><Timestamp dt:dt=""int"">0</Timestamp><DateUtc dt:dt=""string"">2016-12-22T07:14:08Z</DateUtc></StartTime><FrequencyChanges><FrequencyChange><Frequency dt:dt=""r8"">3579545</Frequency><Timestamp dt:dt=""r8"">79208180474</Timestamp><Current dt:dt=""r8"">0</Current><DateUtc dt:dt=""string"">2016-12-22T07:14:08Z</DateUtc></FrequencyChange></FrequencyChanges></Clock>\n",2016-12-22 15:14,84.839,1,1899473078,12-22-2016,15:14:08,7:14:08,87,hood,10,8,86,,,,,,,0,,-999999,18,372301,1,2336,374637,,,,,,,,,aexppro111,block1,nv audio/hood.wav
nv,11,1,"<?xml version=""1.0""?>\n<Clock xmlns:dt=""urn:schemas-microsoft-com:datatypes""><Description dt:dt=""string"">E-Prime Primary Realtime Clock</Description><StartTime><Timestamp dt:dt=""int"">0</Timestamp><DateUtc dt:dt=""string"">2016-12-22T07:14:08Z</DateUtc></StartTime><FrequencyChanges><FrequencyChange><Frequency dt:dt=""r8"">3579545</Frequency><Timestamp dt:dt=""r8"">79208180474</Timestamp><Current dt:dt=""r8"">0</Current><DateUtc dt:dt=""string"">2016-12-22T07:14:08Z</DateUtc></FrequencyChange></FrequencyChanges></Clock>\n",2016-12-22 15:14,84.839,1,1899473078,12-22-2016,15:14:08,7:14:08,88,hayed,3,8,87,,,,,,,0,,-999999,19,375166,1,1060,376226,,,,,,,,,aexppro111,block1,nv audio/hayed.wav
nv,11,1,"<?xml version=""1.0""?>\n<Clock xmlns:dt=""urn:schemas-microsoft-com:datatypes""><Description dt:dt=""string"">E-Prime Primary Realtime Clock</Description><StartTime><Timestamp dt:dt=""int"">0</Timestamp><DateUtc dt:dt=""string"">2016-12-22T07:14:08Z</DateUtc></StartTime><FrequencyChanges><FrequencyChange><Frequency dt:dt=""r8"">3579545</Frequency><Timestamp dt:dt=""r8"">79208180474</Timestamp><Current dt:dt=""r8"">0</Current><DateUtc dt:dt=""string"">2016-12-22T07:14:08Z</DateUtc></FrequencyChange></FrequencyChanges></Clock>\n",2016-12-22 15:14,84.839,1,1899473078,12-22-2016,15:14:08,7:14:08,89,head,4,8,88,,,,,,,0,,-999999,19,376757,1,3154,379911,,,,,,,,,aexppro111,block1,nv audio/head.wav
nv,11,1,"<?xml version=""1.0""?>\n<Clock xmlns:dt=""urn:schemas-microsoft-com:datatypes""><Description dt:dt=""string"">E-Prime Primary Realtime Clock</Description><StartTime><Timestamp dt:dt=""int"">0</Timestamp><DateUtc dt:dt=""string"">2016-12-22T07:14:08Z</DateUtc></StartTime><FrequencyChanges><FrequencyChange><Frequency dt:dt=""r8"">3579545</Frequency><Timestamp dt:dt=""r8"">79208180474</Timestamp><Current dt:dt=""r8"">0</Current><DateUtc dt:dt=""string"">2016-12-22T07:14:08Z</DateUtc></FrequencyChange></FrequencyChanges></Clock>\n",2016-12-22 15:14,84.839,1,1899473078,12-22-2016,15:14:08,7:14:08,90,hoed,2,8,89,,,,,,,0,,-999999,18,380434,1,3216,383650,,,,,,,,,aexppro111,block1,nv audio/hawed.wav
nv,11,1,"<?xml version=""1.0""?>\n<Clock xmlns:dt=""urn:schemas-microsoft-com:datatypes""><Description dt:dt=""string"">E-Prime Primary Realtime Clock</Description><StartTime><Timestamp dt:dt=""int"">0</Timestamp><DateUtc dt:dt=""string"">2016-12-22T07:14:08Z</DateUtc></StartTime><FrequencyChanges><FrequencyChange><Frequency dt:dt=""r8"">3579545</Frequency><Timestamp dt:dt=""r8"">79208180474</Timestamp><Current dt:dt=""r8"">0</Current><DateUtc dt:dt=""string"">2016-12-22T07:14:08Z</DateUtc></FrequencyChange></FrequencyChanges></Clock>\n",2016-12-22 15:14,84.839,1,1899473078,12-22-2016,15:14:08,7:14:08,91,heard,5,8,90,,,,,,,0,,-999999,19,384183,1,1390,385573,,,,,,,,,aexppro111,block1,nv audio/heard.wav
nv,11,1,"<?xml version=""1.0""?>\n<Clock xmlns:dt=""urn:schemas-microsoft-com:datatypes""><Description dt:dt=""string"">E-Prime Primary Realtime Clock</Description><StartTime><Timestamp dt:dt=""int"">0</Timestamp><DateUtc dt:dt=""string"">2016-12-22T07:14:08Z</DateUtc></StartTime><FrequencyChanges><FrequencyChange><Frequency dt:dt=""r8"">3579545</Frequency><Timestamp dt:dt=""r8"">79208180474</Timestamp><Current dt:dt=""r8"">0</Current><DateUtc dt:dt=""string"">2016-12-22T07:14:08Z</DateUtc></FrequencyChange></FrequencyChanges></Clock>\n",2016-12-22 15:14,84.839,1,1899473078,12-22-2016,15:14:08,7:14:08,92,hoed,9,8,91,,,,,,,0,,-999999,19,386104,1,1233,387337,,,,,,,,,aexppro111,block1,nv audio/hoed.wav
nv,11,1,"<?xml version=""1.0""?>\n<Clock xmlns:dt=""urn:schemas-microsoft-com:datatypes""><Description dt:dt=""string"">E-Prime Primary Realtime Clock</Description><StartTime><Timestamp dt:dt=""int"">0</Timestamp><DateUtc dt:dt=""string"">2016-12-22T07:14:08Z</DateUtc></StartTime><FrequencyChanges><FrequencyChange><Frequency dt:dt=""r8"">3579545</Frequency><Timestamp dt:dt=""r8"">79208180474</Timestamp><Current dt:dt=""r8"">0</Current><DateUtc dt:dt=""string"">2016-12-22T07:14:08Z</DateUtc></FrequencyChange></FrequencyChanges></Clock>\n",2016-12-22 15:14,84.839,1,1899473078,12-22-2016,15:14:08,7:14:08,93,had,1,8,92,,,,,,,0,,-999999,30,387872,1,1709,389581,,,,,,,,,aexppro111,block1,nv audio/had.wav
nv,11,1,"<?xml version=""1.0""?>\n<Clock xmlns:dt=""urn:schemas-microsoft-com:datatypes""><Description dt:dt=""string"">E-Prime Primary Realtime Clock</Description><StartTime><Timestamp dt:dt=""int"">0</Timestamp><DateUtc dt:dt=""string"">2016-12-22T07:14:08Z</DateUtc></StartTime><FrequencyChanges><FrequencyChange><Frequency dt:dt=""r8"">3579545</Frequency><Timestamp dt:dt=""r8"">79208180474</Timestamp><Current dt:dt=""r8"">0</Current><DateUtc dt:dt=""string"">2016-12-22T07:14:08Z</DateUtc></FrequencyChange></FrequencyChanges></Clock>\n",2016-12-22 15:14,84.839,1,1899473078,12-22-2016,15:14:08,7:14:08,94,heed,6,8,93,,,,,,,0,,-999999,30,390123,1,1094,391217,,,,,,,,,aexppro111,block1,nv audio/heed.wav
nv,11,1,"<?xml version=""1.0""?>\n<Clock xmlns:dt=""urn:schemas-microsoft-com:datatypes""><Description dt:dt=""string"">E-Prime Primary Realtime Clock</Description><StartTime><Timestamp dt:dt=""int"">0</Timestamp><DateUtc dt:dt=""string"">2016-12-22T07:14:08Z</DateUtc></StartTime><FrequencyChanges><FrequencyChange><Frequency dt:dt=""r8"">3579545</Frequency><Timestamp dt:dt=""r8"">79208180474</Timestamp><Current dt:dt=""r8"">0</Current><DateUtc dt:dt=""string"">2016-12-22T07:14:08Z</DateUtc></FrequencyChange></FrequencyChanges></Clock>\n",2016-12-22 15:14,84.839,1,1899473078,12-22-2016,15:14:08,7:14:08,95,hood,12,8,94,,,,,,,0,,-999999,31,391762,1,1208,392970,,,,,,,,,aexppro111,block1,nv audio/whod.wav
nv,11,1,"<?xml version=""1.0""?>\n<Clock xmlns:dt=""urn:schemas-microsoft-com:datatypes""><Description dt:dt=""string"">E-Prime Primary Realtime Clock</Description><StartTime><Timestamp dt:dt=""int"">0</Timestamp><DateUtc dt:dt=""string"">2016-12-22T07:14:08Z</DateUtc></StartTime><FrequencyChanges><FrequencyChange><Frequency dt:dt=""r8"">3579545</Frequency><Timestamp dt:dt=""r8"">79208180474</Timestamp><Current dt:dt=""r8"">0</Current><DateUtc dt:dt=""string"">2016-12-22T07:14:08Z</DateUtc></FrequencyChange></FrequencyChanges></Clock>\n",2016-12-22 15:14,84.839,1,1899473078,12-22-2016,15:14:08,7:14:08,96,hoed,8,8,95,,,,,,,0,,-999999,18,393494,1,1424,394918,,,,,,,,,aexppro111,block1,nv audio/hod.wav
nv,11,1,"<?xml version=""1.0""?>\n<Clock xmlns:dt=""urn:schemas-microsoft-com:datatypes""><Description dt:dt=""string"">E-Prime Primary Realtime Clock</Description><StartTime><Timestamp dt:dt=""int"">0</Timestamp><DateUtc dt:dt=""string"">2016-12-22T07:14:08Z</DateUtc></StartTime><FrequencyChanges><FrequencyChange><Frequency dt:dt=""r8"">3579545</Frequency><Timestamp dt:dt=""r8"">79208180474</Timestamp><Current dt:dt=""r8"">0</Current><DateUtc dt:dt=""string"">2016-12-22T07:14:08Z</DateUtc></FrequencyChange></FrequencyChanges></Clock>\n",2016-12-22 15:14,84.839,1,1899473078,12-22-2016,15:14:08,7:14:08,97,,11,8,96,,,,,,,1,,0,31,395463,,0,0,,,,,,,,,aexppro111,block1,nv audio/hud.wav
nv,11,1,"<?xml version=""1.0""?>\n<Clock xmlns:dt=""urn:schemas-microsoft-com:datatypes""><Description dt:dt=""string"">E-Prime Primary Realtime Clock</Description><StartTime><Timestamp dt:dt=""int"">0</Timestamp><DateUtc dt:dt=""string"">2016-12-22T07:14:08Z</DateUtc></StartTime><FrequencyChanges><FrequencyChange><Frequency dt:dt=""r8"">3579545</Frequency><Timestamp dt:dt=""r8"">79208180474</Timestamp><Current dt:dt=""r8"">0</Current><DateUtc dt:dt=""string"">2016-12-22T07:14:08Z</DateUtc></FrequencyChange></FrequencyChanges></Clock>\n",2016-12-22 15:14,84.839,1,1899473078,12-22-2016,15:14:08,7:14:08,98,hood,12,9,97,,,,,,,0,,-999999,19,401993,1,1224,403217,,,,,,,,,aexppro111,block1,nv audio/whod.wav
nv,11,1,"<?xml version=""1.0""?>\n<Clock xmlns:dt=""urn:schemas-microsoft-com:datatypes""><Description dt:dt=""string"">E-Prime Primary Realtime Clock</Description><StartTime><Timestamp dt:dt=""int"">0</Timestamp><DateUtc dt:dt=""string"">2016-12-22T07:14:08Z</DateUtc></StartTime><FrequencyChanges><FrequencyChange><Frequency dt:dt=""r8"">3579545</Frequency><Timestamp dt:dt=""r8"">79208180474</Timestamp><Current dt:dt=""r8"">0</Current><DateUtc dt:dt=""string"">2016-12-22T07:14:08Z</DateUtc></FrequencyChange></FrequencyChanges></Clock>\n",2016-12-22 15:14,84.839,1,1899473078,12-22-2016,15:14:08,7:14:08,99,hood,10,9,98,,,,,,,0,,-999999,30,403761,1,1982,405743,,,,,,,,,aexppro111,block1,nv audio/hood.wav
nv,11,1,"<?xml version=""1.0""?>\n<Clock xmlns:dt=""urn:schemas-microsoft-com:datatypes""><Description dt:dt=""string"">E-Prime Primary Realtime Clock</Description><StartTime><Timestamp dt:dt=""int"">0</Timestamp><DateUtc dt:dt=""string"">2016-12-22T07:14:08Z</DateUtc></StartTime><FrequencyChanges><FrequencyChange><Frequency dt:dt=""r8"">3579545</Frequency><Timestamp dt:dt=""r8"">79208180474</Timestamp><Current dt:dt=""r8"">0</Current><DateUtc dt:dt=""string"">2016-12-22T07:14:08Z</DateUtc></FrequencyChange></FrequencyChanges></Clock>\n",2016-12-22 15:14,84.839,1,1899473078,12-22-2016,15:14:08,7:14:08,100,heard,5,9,99,,,,,,,0,,-999999,19,406272,1,898,407170,,,,,,,,,aexppro111,block1,nv audio/heard.wav
nv,11,1,"<?xml version=""1.0""?>\n<Clock xmlns:dt=""urn:schemas-microsoft-com:datatypes""><Description dt:dt=""string"">E-Prime Primary Realtime Clock</Description><StartTime><Timestamp dt:dt=""int"">0</Timestamp><DateUtc dt:dt=""string"">2016-12-22T07:14:08Z</DateUtc></StartTime><FrequencyChanges><FrequencyChange><Frequency dt:dt=""r8"">3579545</Frequency><Timestamp dt:dt=""r8"">79208180474</Timestamp><Current dt:dt=""r8"">0</Current><DateUtc dt:dt=""string"">2016-12-22T07:14:08Z</DateUtc></FrequencyChange></FrequencyChanges></Clock>\n",2016-12-22 15:14,84.839,1,1899473078,12-22-2016,15:14:08,7:14:08,101,hoed,2,9,100,,,,,,,0,,-999999,19,407698,1,2341,410039,,,,,,,,,aexppro111,block1,nv audio/hawed.wav
nv,11,1,"<?xml version=""1.0""?>\n<Clock xmlns:dt=""urn:schemas-microsoft-com:datatypes""><Description dt:dt=""string"">E-Prime Primary Realtime Clock</Description><StartTime><Timestamp dt:dt=""int"">0</Timestamp><DateUtc dt:dt=""string"">2016-12-22T07:14:08Z</DateUtc></StartTime><FrequencyChanges><FrequencyChange><Frequency dt:dt=""r8"">3579545</Frequency><Timestamp dt:dt=""r8"">79208180474</Timestamp><Current dt:dt=""r8"">0</Current><DateUtc dt:dt=""string"">2016-12-22T07:14:08Z</DateUtc></FrequencyChange></FrequencyChanges></Clock>\n",2016-12-22 15:14,84.839,1,1899473078,12-22-2016,15:14:08,7:14:08,102,hid,7,9,101,,,,,,,0,,-999999,30,410574,1,1934,412508,,,,,,,,,aexppro111,block1,nv audio/hid.wav
nv,11,1,"<?xml version=""1.0""?>\n<Clock xmlns:dt=""urn:schemas-microsoft-com:datatypes""><Description dt:dt=""string"">E-Prime Primary Realtime Clock</Description><StartTime><Timestamp dt:dt=""int"">0</Timestamp><DateUtc dt:dt=""string"">2016-12-22T07:14:08Z</DateUtc></StartTime><FrequencyChanges><FrequencyChange><Frequency dt:dt=""r8"">3579545</Frequency><Timestamp dt:dt=""r8"">79208180474</Timestamp><Current dt:dt=""r8"">0</Current><DateUtc dt:dt=""string"">2016-12-22T07:14:08Z</DateUtc></FrequencyChange></FrequencyChanges></Clock>\n",2016-12-22 15:14,84.839,1,1899473078,12-22-2016,15:14:08,7:14:08,103,,11,9,102,,,,,,,1,,0,18,413037,,0,0,,,,,,,,,aexppro111,block1,nv audio/hud.wav
nv,11,1,"<?xml version=""1.0""?>\n<Clock xmlns:dt=""urn:schemas-microsoft-com:datatypes""><Description dt:dt=""string"">E-Prime Primary Realtime Clock</Description><StartTime><Timestamp dt:dt=""int"">0</Timestamp><DateUtc dt:dt=""string"">2016-12-22T07:14:08Z</DateUtc></StartTime><FrequencyChanges><FrequencyChange><Frequency dt:dt=""r8"">3579545</Frequency><Timestamp dt:dt=""r8"">79208180474</Timestamp><Current dt:dt=""r8"">0</Current><DateUtc dt:dt=""string"">2016-12-22T07:14:08Z</DateUtc></FrequencyChange></FrequencyChanges></Clock>\n",2016-12-22 15:14,84.839,1,1899473078,12-22-2016,15:14:08,7:14:08,104,heed,6,9,103,,,,,,,0,,-999999,19,419568,1,1785,421353,,,,,,,,,aexppro111,block1,nv audio/heed.wav
nv,11,1,"<?xml version=""1.0""?>\n<Clock xmlns:dt=""urn:schemas-microsoft-com:datatypes""><Description dt:dt=""string"">E-Prime Primary Realtime Clock</Description><StartTime><Timestamp dt:dt=""int"">0</Timestamp><DateUtc dt:dt=""string"">2016-12-22T07:14:08Z</DateUtc></StartTime><FrequencyChanges><FrequencyChange><Frequency dt:dt=""r8"">3579545</Frequency><Timestamp dt:dt=""r8"">79208180474</Timestamp><Current dt:dt=""r8"">0</Current><DateUtc dt:dt=""string"">2016-12-22T07:14:08Z</DateUtc></FrequencyChange></FrequencyChanges></Clock>\n",2016-12-22 15:14,84.839,1,1899473078,12-22-2016,15:14:08,7:14:08,105,had,1,9,104,,,,,,,0,,-999999,31,421890,1,2292,424182,,,,,,,,,aexppro111,block1,nv audio/had.wav
nv,11,1,"<?xml version=""1.0""?>\n<Clock xmlns:dt=""urn:schemas-microsoft-com:datatypes""><Description dt:dt=""string"">E-Prime Primary Realtime Clock</Description><StartTime><Timestamp dt:dt=""int"">0</Timestamp><DateUtc dt:dt=""string"">2016-12-22T07:14:08Z</DateUtc></StartTime><FrequencyChanges><FrequencyChange><Frequency dt:dt=""r8"">3579545</Frequency><Timestamp dt:dt=""r8"">79208180474</Timestamp><Current dt:dt=""r8"">0</Current><DateUtc dt:dt=""string"">2016-12-22T07:14:08Z</DateUtc></FrequencyChange></FrequencyChanges></Clock>\n",2016-12-22 15:14,84.839,1,1899473078,12-22-2016,15:14:08,7:14:08,106,hayed,3,9,105,,,,,,,0,,-999999,19,424707,1,1235,425942,,,,,,,,,aexppro111,block1,nv audio/hayed.wav
nv,11,1,"<?xml version=""1.0""?>\n<Clock xmlns:dt=""urn:schemas-microsoft-com:datatypes""><Description dt:dt=""string"">E-Prime Primary Realtime Clock</Description><StartTime><Timestamp dt:dt=""int"">0</Timestamp><DateUtc dt:dt=""string"">2016-12-22T07:14:08Z</DateUtc></StartTime><FrequencyChanges><FrequencyChange><Frequency dt:dt=""r8"">3579545</Frequency><Timestamp dt:dt=""r8"">79208180474</Timestamp><Current dt:dt=""r8"">0</Current><DateUtc dt:dt=""string"">2016-12-22T07:14:08Z</DateUtc></FrequencyChange></FrequencyChanges></Clock>\n",2016-12-22 15:14,84.839,1,1899473078,12-22-2016,15:14:08,7:14:08,107,hoed,9,9,106,,,,,,,0,,-999999,19,426475,1,2357,428832,,,,,,,,,aexppro111,block1,nv audio/hoed.wav
nv,11,1,"<?xml version=""1.0""?>\n<Clock xmlns:dt=""urn:schemas-microsoft-com:datatypes""><Description dt:dt=""string"">E-Prime Primary Realtime Clock</Description><StartTime><Timestamp dt:dt=""int"">0</Timestamp><DateUtc dt:dt=""string"">2016-12-22T07:14:08Z</DateUtc></StartTime><FrequencyChanges><FrequencyChange><Frequency dt:dt=""r8"">3579545</Frequency><Timestamp dt:dt=""r8"">79208180474</Timestamp><Current dt:dt=""r8"">0</Current><DateUtc dt:dt=""string"">2016-12-22T07:14:08Z</DateUtc></FrequencyChange></FrequencyChanges></Clock>\n",2016-12-22 15:14,84.839,1,1899473078,12-22-2016,15:14:08,7:14:08,108,,8,9,107,,,,,,,1,,0,30,429374,,0,0,,,,,,,,,aexppro111,block1,nv audio/hod.wav
nv,11,1,"<?xml version=""1.0""?>\n<Clock xmlns:dt=""urn:schemas-microsoft-com:datatypes""><Description dt:dt=""string"">E-Prime Primary Realtime Clock</Description><StartTime><Timestamp dt:dt=""int"">0</Timestamp><DateUtc dt:dt=""string"">2016-12-22T07:14:08Z</DateUtc></StartTime><FrequencyChanges><FrequencyChange><Frequency dt:dt=""r8"">3579545</Frequency><Timestamp dt:dt=""r8"">79208180474</Timestamp><Current dt:dt=""r8"">0</Current><DateUtc dt:dt=""string"">2016-12-22T07:14:08Z</DateUtc></FrequencyChange></FrequencyChanges></Clock>\n",2016-12-22 15:14,84.839,1,1899473078,12-22-2016,15:14:08,7:14:08,109,hid,4,9,108,,,,,,,0,,-999999,30,435916,1,1883,437799,,,,,,,,,aexppro111,block1,nv audio/head.wav
nv,11,1,"<?xml version=""1.0""?>\n<Clock xmlns:dt=""urn:schemas-microsoft-com:datatypes""><Description dt:dt=""string"">E-Prime Primary Realtime Clock</Description><StartTime><Timestamp dt:dt=""int"">0</Timestamp><DateUtc dt:dt=""string"">2016-12-22T07:14:08Z</DateUtc></StartTime><FrequencyChanges><FrequencyChange><Frequency dt:dt=""r8"">3579545</Frequency><Timestamp dt:dt=""r8"">79208180474</Timestamp><Current dt:dt=""r8"">0</Current><DateUtc dt:dt=""string"">2016-12-22T07:14:08Z</DateUtc></FrequencyChange></FrequencyChanges></Clock>\n",2016-12-22 15:14,84.839,1,1899473078,12-22-2016,15:14:08,7:14:08,110,hoed,9,10,109,,,,,,,0,,-999999,19,438321,1,3526,441847,,,,,,,,,aexppro111,block1,nv audio/hoed.wav
nv,11,1,"<?xml version=""1.0""?>\n<Clock xmlns:dt=""urn:schemas-microsoft-com:datatypes""><Description dt:dt=""string"">E-Prime Primary Realtime Clock</Description><StartTime><Timestamp dt:dt=""int"">0</Timestamp><DateUtc dt:dt=""string"">2016-12-22T07:14:08Z</DateUtc></StartTime><FrequencyChanges><FrequencyChange><Frequency dt:dt=""r8"">3579545</Frequency><Timestamp dt:dt=""r8"">79208180474</Timestamp><Current dt:dt=""r8"">0</Current><DateUtc dt:dt=""string"">2016-12-22T07:14:08Z</DateUtc></FrequencyChange></FrequencyChanges></Clock>\n",2016-12-22 15:14,84.839,1,1899473078,12-22-2016,15:14:08,7:14:08,111,heard,5,10,110,,,,,,,0,,-999999,30,442387,1,1118,443505,,,,,,,,,aexppro111,block1,nv audio/heard.wav
nv,11,1,"<?xml version=""1.0""?>\n<Clock xmlns:dt=""urn:schemas-microsoft-com:datatypes""><Description dt:dt=""string"">E-Prime Primary Realtime Clock</Description><StartTime><Timestamp dt:dt=""int"">0</Timestamp><DateUtc dt:dt=""string"">2016-12-22T07:14:08Z</DateUtc></StartTime><FrequencyChanges><FrequencyChange><Frequency dt:dt=""r8"">3579545</Frequency><Timestamp dt:dt=""r8"">79208180474</Timestamp><Current dt:dt=""r8"">0</Current><DateUtc dt:dt=""string"">2016-12-22T07:14:08Z</DateUtc></FrequencyChange></FrequencyChanges></Clock>\n",2016-12-22 15:14,84.839,1,1899473078,12-22-2016,15:14:08,7:14:08,112,whod,11,10,111,,,,,,,0,,-999999,19,444038,1,3489,447527,,,,,,,,,aexppro111,block1,nv audio/hud.wav
nv,11,1,"<?xml version=""1.0""?>\n<Clock xmlns:dt=""urn:schemas-microsoft-com:datatypes""><Description dt:dt=""string"">E-Prime Primary Realtime Clock</Description><StartTime><Timestamp dt:dt=""int"">0</Timestamp><DateUtc dt:dt=""string"">2016-12-22T07:14:08Z</DateUtc></StartTime><FrequencyChanges><FrequencyChange><Frequency dt:dt=""r8"">3579545</Frequency><Timestamp dt:dt=""r8"">79208180474</Timestamp><Current dt:dt=""r8"">0</Current><DateUtc dt:dt=""string"">2016-12-22T07:14:08Z</DateUtc></FrequencyChange></FrequencyChanges></Clock>\n",2016-12-22 15:14,84.839,1,1899473078,12-22-2016,15:14:08,7:14:08,113,whod,10,10,112,,,,,,,0,,-999999,19,448057,1,1654,449711,,,,,,,,,aexppro111,block1,nv audio/hood.wav
nv,11,1,"<?xml version=""1.0""?>\n<Clock xmlns:dt=""urn:schemas-microsoft-com:datatypes""><Description dt:dt=""string"">E-Prime Primary Realtime Clock</Description><StartTime><Timestamp dt:dt=""int"">0</Timestamp><DateUtc dt:dt=""string"">2016-12-22T07:14:08Z</DateUtc></StartTime><FrequencyChanges><FrequencyChange><Frequency dt:dt=""r8"">3579545</Frequency><Timestamp dt:dt=""r8"">79208180474</Timestamp><Current dt:dt=""r8"">0</Current><DateUtc dt:dt=""string"">2016-12-22T07:14:08Z</DateUtc></FrequencyChange></FrequencyChanges></Clock>\n",2016-12-22 15:14,84.839,1,1899473078,12-22-2016,15:14:08,7:14:08,114,hawed,2,10,113,,,,,,,0,,-999999,30,450249,1,3704,453953,,,,,,,,,aexppro111,block1,nv audio/hawed.wav
nv,11,1,"<?xml version=""1.0""?>\n<Clock xmlns:dt=""urn:schemas-microsoft-com:datatypes""><Description dt:dt=""string"">E-Prime Primary Realtime Clock</Description><StartTime><Timestamp dt:dt=""int"">0</Timestamp><DateUtc dt:dt=""string"">2016-12-22T07:14:08Z</DateUtc></StartTime><FrequencyChanges><FrequencyChange><Frequency dt:dt=""r8"">3579545</Frequency><Timestamp dt:dt=""r8"">79208180474</Timestamp><Current dt:dt=""r8"">0</Current><DateUtc dt:dt=""string"">2016-12-22T07:14:08Z</DateUtc></FrequencyChange></FrequencyChanges></Clock>\n",2016-12-22 15:14,84.839,1,1899473078,12-22-2016,15:14:08,7:14:08,115,hid,7,10,114,,,,,,,0,,-999999,31,454493,1,1307,455800,,,,,,,,,aexppro111,block1,nv audio/hid.wav
