ExperimentName,Subject,Session,Clock.Information,Clock.StartTimeOfDay,Display.RefreshRate,Group,RandomSeed,SessionDate,SessionTime,SessionTimeUtc,Block,answer1[Block],block1,block1.Cycle,block1.Sample,block2,block2.Cycle,block2.Sample,lx,lx.Cycle,lx.Sample,panel1111.ACC,panel1111.CRESP,panel1111.DurationError,panel1111.OnsetDelay,panel1111.OnsetTime,panel1111.RESP,panel1111.RT,panel1111.RTTime,panel1121.ACC,panel1121.CRESP,panel1121.DurationError,panel1121.OnsetDelay,panel1121.OnsetTime,panel1121.RESP,panel1121.RT,panel1121.RTTime,Procedure[Block],Running[Block],sound111,sound112,Trial,answer1[Trial],lxlist,lxlist.Cycle,lxlist.Sample,lxpanel1.ACC,lxpanel1.CRESP,lxpanel1.DurationError,lxpanel1.OnsetDelay,lxpanel1.OnsetTime,lxpanel1.RESP,lxpanel1.RT,lxpanel1.RTTime,lxsound,Procedure[Trial],Running[Trial]
nv,11,1,"<?xml version=""1.0""?>\n<Clock xmlns:dt=""urn:schemas-microsoft-com:datatypes""><Description dt:dt=""string"">E-Prime Primary Realtime Clock</Description><StartTime><Timestamp dt:dt=""int"">0</Timestamp><DateUtc dt:dt=""string"">2016-12-23T06:07:35Z</DateUtc></StartTime><FrequencyChanges><FrequencyChange><Frequency dt:dt=""r8"">3579545</Frequency><Timestamp dt:dt=""r8"">68255163593</Timestamp><Current dt:dt=""r8"">0</Current><DateUtc dt:dt=""string"">2016-12-23T06:07:35Z</DateUtc></FrequencyChange></FrequencyChanges></Clock>\n",2016-12-23 14:07,84.839,1,-463581712,12-23-2016,14:07:36,6:07:36,1,,,,,,,,1,1,1,,,,,,,,,,,,,,,,,lxProc,lx,,,1,a,1,1,1,0,,-999999,47,33947,1,2540,36487,nv audio/a1_24k.wav,lxpro1,lxlist
nv,11,1,"<?xml version=""1.0""?>\n<Clock xmlns:dt=""urn:schemas-microsoft-com:datatypes""><Description dt:dt=""string"">E-Prime Primary Realtime Clock</Description><StartTime><Timestamp dt:dt=""int"">0</Timestamp><DateUtc dt:dt=""string"">2016-12-23T06:07:35Z</DateUtc></StartTime><FrequencyChanges><FrequencyChange><Frequency dt:dt=""r8"">3579545</Frequency><Timestamp dt:dt=""r8"">68255163593</Timestamp><Current dt:dt=""r8"">0</Current><DateUtc dt:dt=""string"">2016-12-23T06:07:35Z</DateUtc></FrequencyChange></FrequencyChanges></Clock>\n",2016-12-23 14:07,84.839,1,-463581712,12-23-2016,14:07:36,6:07:36,1,,,,,,,,1,1,1,,,,,,,,,,,,,,,,,lxProc,lx,,,2,i,3,1,2,0,,-999999,30,37023,1,684,37707,nv audio/i1_24k.wav,lxpro1,lxlist
nv,11,1,"<?xml version=""1.0""?>\n<Clock xmlns:dt=""urn:schemas-microsoft-com:datatypes""><Description dt:dt=""string"">E-Prime Primary Realtime Clock</Description><StartTime><Timestamp dt:dt=""int"">0</Timestamp><DateUtc dt:dt=""string"">2016-12-23T06:07:35Z</DateUtc></StartTime><FrequencyChanges><FrequencyChange><Frequency dt:dt=""r8"">3579545</Frequency><Timestamp dt:dt=""r8"">68255163593</Timestamp><Current dt:dt=""r8"">0</Current><DateUtc dt:dt=""string"">2016-12-23T06:07:35Z</DateUtc></FrequencyChange></FrequencyChanges></Clock>\n",2016-12-23 14:07,84.839,1,-463581712,12-23-2016,14:07:36,6:07:36,1,,,,,,,,1,1,1,,,,,,,,,,,,,,,,,lxProc,lx,,,3,v,5,1,3,0,,-999999,54,38273,1,947,39220,nv audio/y1_24k.wav,lxpro1,lxlist
nv,11,1,"<?xml version=""1.0""?>\n<Clock xmlns:dt=""urn:schemas-microsoft-com:datatypes""><Description dt:dt=""string"">E-Prime Primary Realtime Clock</Description><StartTime><Timestamp dt:dt=""int"">0</Timestamp><DateUtc dt:dt=""string"">2016-12-23T06:07:35Z</DateUtc></StartTime><FrequencyChanges><FrequencyChange><Frequency dt:dt=""r8"">3579545</Frequency><Timestamp dt:dt=""r8"">68255163593</Timestamp><Current dt:dt=""r8"">0</Current><DateUtc dt:dt=""string"">2016-12-23T06:07:35Z</DateUtc></FrequencyChange></FrequencyChanges></Clock>\n",2016-12-23 14:07,84.839,1,-463581712,12-23-2016,14:07:36,6:07:36,1,,,,,,,,1,1,1,,,,,,,,,,,,,,,,,lxProc,lx,,,4,e,2,1,4,0,,-999999,31,39758,1,1202,40960,nv audio/e1_24k.wav,lxpro1,lxlist
nv,11,1,"<?xml version=""1.0""?>\n<Clock xmlns:dt=""urn:schemas-microsoft-com:datatypes""><Description dt:dt=""string"">E-Prime Primary Realtime Clock</Description><StartTime><Timestamp dt:dt=""int"">0</Timestamp><DateUtc dt:dt=""string"">2016-12-23T06:07:35Z</DateUtc></StartTime><FrequencyChanges><FrequencyChange><Frequency dt:dt=""r8"">3579545</Frequency><Timestamp dt:dt=""r8"">68255163593</Timestamp><Current dt:dt=""r8"">0</Current><DateUtc dt:dt=""string"">2016-12-23T06:07:35Z</DateUtc></FrequencyChange></FrequencyChanges></Clock>\n",2016-12-23 14:07,84.839,1,-463581712,12-23-2016,14:07:36,6:07:36,1,,,,,,,,1,1,1,,,,,,,,,,,,,,,,,lxProc,lx,,,5,u,4,1,5,0,,-999999,19,41491,1,729,42220,nv audio/u1_24k.wav,lxpro1,lxlist
nv,11,1,"<?xml version=""1.0""?>\n<Clock xmlns:dt=""urn:schemas-microsoft-com:datatypes""><Description dt:dt=""string"">E-Prime Primary Realtime Clock</Description><StartTime><Timestamp dt:dt=""int"">0</Timestamp><DateUtc dt:dt=""string"">2016-12-23T06:07:35Z</DateUtc></StartTime><FrequencyChanges><FrequencyChange><Frequency dt:dt=""r8"">3579545</Frequency><Timestamp dt:dt=""r8"">68255163593</Timestamp><Current dt:dt=""r8"">0</Current><DateUtc dt:dt=""string"">2016-12-23T06:07:35Z</DateUtc></FrequencyChange></FrequencyChanges></Clock>\n",2016-12-23 14:07,84.839,1,-463581712,12-23-2016,14:07:36,6:07:36,1,,,,,,,,1,1,1,,,,,,,,,,,,,,,,,lxProc,lx,,,6,i,3,2,6,0,,-999999,19,42752,1,424,43176,nv audio/i1_24k.wav,lxpro1,lxlist
nv,11,1,"<?xml version=""1.0""?>\n<Clock xmlns:dt=""urn:schemas-microsoft-com:datatypes""><Description dt:dt=""string"">E-Prime Primary Realtime Clock</Description><StartTime><Timestamp dt:dt=""int"">0</Timestamp><DateUtc dt:dt=""string"">2016-12-23T06:07:35Z</DateUtc></StartTime><FrequencyChanges><FrequencyChange><Frequency dt:dt=""r8"">3579545</Frequency><Timestamp dt:dt=""r8"">68255163593</Timestamp><Current dt:dt=""r8"">0</Current><DateUtc dt:dt=""string"">2016-12-23T06:07:35Z</DateUtc></FrequencyChange></FrequencyChanges></Clock>\n",2016-12-23 14:07,84.839,1,-463581712,12-23-2016,14:07:36,6:07:36,1,,,,,,,,1,1,1,,,,,,,,,,,,,,,,,lxProc,lx,,,7,a,1,2,7,0,,-999999,42,43730,1,829,44559,nv audio/a1_24k.wav,lxpro1,lxlist
nv,11,1,"<?xml version=""1.0""?>\n<Clock xmlns:dt=""urn:schemas-microsoft-com:datatypes""><Description dt:dt=""string"">E-Prime Primary Realtime Clock</Description><StartTime><Timestamp dt:dt=""int"">0</Timestamp><DateUtc dt:dt=""string"">2016-12-23T06:07:35Z</DateUtc></StartTime><FrequencyChanges><FrequencyChange><Frequency dt:dt=""r8"">3579545</Frequency><Timestamp dt:dt=""r8"">68255163593</Timestamp><Current dt:dt=""r8"">0</Current><DateUtc dt:dt=""string"">2016-12-23T06:07:35Z</DateUtc></FrequencyChange></FrequencyChanges></Clock>\n",2016-12-23 14:07,84.839,1,-463581712,12-23-2016,14:07:36,6:07:36,1,,,,,,,,1,1,1,,,,,,,,,,,,,,,,,lxProc,lx,,,8,u,4,2,8,0,,-999999,30,45097,1,712,45809,nv audio/u1_24k.wav,lxpro1,lxlist
nv,11,1,"<?xml version=""1.0""?>\n<Clock xmlns:dt=""urn:schemas-microsoft-com:datatypes""><Description dt:dt=""string"">E-Prime Primary Realtime Clock</Description><StartTime><Timestamp dt:dt=""int"">0</Timestamp><DateUtc dt:dt=""string"">2016-12-23T06:07:35Z</DateUtc></StartTime><FrequencyChanges><FrequencyChange><Frequency dt:dt=""r8"">3579545</Frequency><Timestamp dt:dt=""r8"">68255163593</Timestamp><Current dt:dt=""r8"">0</Current><DateUtc dt:dt=""string"">2016-12-23T06:07:35Z</DateUtc></FrequencyChange></FrequencyChanges></Clock>\n",2016-12-23 14:07,84.839,1,-463581712,12-23-2016,14:07:36,6:07:36,1,,,,,,,,1,1,1,,,,,,,,,,,,,,,,,lxProc,lx,,,9,e,2,2,9,0,,-999999,31,46347,1,728,47075,nv audio/e1_24k.wav,lxpro1,lxlist
nv,11,1,"<?xml version=""1.0""?>\n<Clock xmlns:dt=""urn:schemas-microsoft-com:datatypes""><Description dt:dt=""string"">E-Prime Primary Realtime Clock</Description><StartTime><Timestamp dt:dt=""int"">0</Timestamp><DateUtc dt:dt=""string"">2016-12-23T06:07:35Z</DateUtc></StartTime><FrequencyChanges><FrequencyChange><Frequency dt:dt=""r8"">3579545</Frequency><Timestamp dt:dt=""r8"">68255163593</Timestamp><Current dt:dt=""r8"">0</Current><DateUtc dt:dt=""string"">2016-12-23T06:07:35Z</DateUtc></FrequencyChange></FrequencyChanges></Clock>\n",2016-12-23 14:07,84.839,1,-463581712,12-23-2016,14:07:36,6:07:36,1,,,,,,,,1,1,1,,,,,,,,,,,,,,,,,lxProc,lx,,,10,i,5,2,10,0,,-999999,31,47620,1,327,47947,nv audio/y1_24k.wav,lxpro1,lxlist
nv,11,1,"<?xml version=""1.0""?>\n<Clock xmlns:dt=""urn:schemas-microsoft-com:datatypes""><Description dt:dt=""string"">E-Prime Primary Realtime Clock</Description><StartTime><Timestamp dt:dt=""int"">0</Timestamp><DateUtc dt:dt=""string"">2016-12-23T06:07:35Z</DateUtc></StartTime><FrequencyChanges><FrequencyChange><Frequency dt:dt=""r8"">3579545</Frequency><Timestamp dt:dt=""r8"">68255163593</Timestamp><Current dt:dt=""r8"">0</Current><DateUtc dt:dt=""string"">2016-12-23T06:07:35Z</DateUtc></FrequencyChange></FrequencyChanges></Clock>\n",2016-12-23 14:07,84.839,1,-463581712,12-23-2016,14:07:36,6:07:36,2,v,5,1,1,,,,,,,0,,-999999,32,49918,1,1772,51690,,,,,,,,,aexppro111,block1,nv audio/y1_24k.wav,,,,,,,,,,,,,,,,,
nv,11,1,"<?xml version=""1.0""?>\n<Clock xmlns:dt=""urn:schemas-microsoft-com:datatypes""><Description dt:dt=""string"">E-Prime Primary Realtime Clock</Description><StartTime><Timestamp dt:dt=""int"">0</Timestamp><DateUtc dt:dt=""string"">2016-12-23T06:07:35Z</DateUtc></StartTime><FrequencyChanges><FrequencyChange><Frequency dt:dt=""r8"">3579545</Frequency><Timestamp dt:dt=""r8"">68255163593</Timestamp><Current dt:dt=""r8"">0</Current><DateUtc dt:dt=""string"">2016-12-23T06:07:35Z</DateUtc></FrequencyChange></FrequencyChanges></Clock>\n",2016-12-23 14:07,84.839,1,-463581712,12-23-2016,14:07:36,6:07:36,3,u,4,1,2,,,,,,,0,,-999999,31,52229,1,631,52860,,,,,,,,,aexppro111,block1,nv audio/u1_24k.wav,,,,,,,,,,,,,,,,,
nv,11,1,"<?xml version=""1.0""?>\n<Clock xmlns:dt=""urn:schemas-microsoft-com:datatypes""><Description dt:dt=""string"">E-Prime Primary Realtime Clock</Description><StartTime><Timestamp dt:dt=""int"">0</Timestamp><DateUtc dt:dt=""string"">2016-12-23T06:07:35Z</DateUtc></StartTime><FrequencyChanges><FrequencyChange><Frequency dt:dt=""r8"">3579545</Frequency><Timestamp dt:dt=""r8"">68255163593</Timestamp><Current dt:dt=""r8"">0</Current><DateUtc dt:dt=""string"">2016-12-23T06:07:35Z</DateUtc></FrequencyChange></FrequencyChanges></Clock>\n",2016-12-23 14:07,84.839,1,-463581712,12-23-2016,14:07:36,6:07:36,4,a,1,1,3,,,,,,,0,,-999999,19,53384,1,898,54282,,,,,,,,,aexppro111,block1,nv audio/a1_24k.wav,,,,,,,,,,,,,,,,,
nv,11,1,"<?xml version=""1.0""?>\n<Clock xmlns:dt=""urn:schemas-microsoft-com:datatypes""><Description dt:dt=""string"">E-Prime Primary Realtime Clock</Description><StartTime><Timestamp dt:dt=""int"">0</Timestamp><DateUtc dt:dt=""string"">2016-12-23T06:07:35Z</DateUtc></StartTime><FrequencyChanges><FrequencyChange><Frequency dt:dt=""r8"">3579545</Frequency><Timestamp dt:dt=""r8"">68255163593</Timestamp><Current dt:dt=""r8"">0</Current><DateUtc dt:dt=""string"">2016-12-23T06:07:35Z</DateUtc></FrequencyChange></FrequencyChanges></Clock>\n",2016-12-23 14:07,84.839,1,-463581712,12-23-2016,14:07:36,6:07:36,5,i,3,1,4,,,,,,,0,,-999999,31,54822,1,501,55323,,,,,,,,,aexppro111,block1,nv audio/i1_24k.wav,,,,,,,,,,,,,,,,,
nv,11,1,"<?xml version=""1.0""?>\n<Clock xmlns:dt=""urn:schemas-microsoft-com:datatypes""><Description dt:dt=""string"">E-Prime Primary Realtime Clock</Description><StartTime><Timestamp dt:dt=""int"">0</Timestamp><DateUtc dt:dt=""string"">2016-12-23T06:07:35Z</DateUtc></StartTime><FrequencyChanges><FrequencyChange><Frequency dt:dt=""r8"">3579545</Frequency><Timestamp dt:dt=""r8"">68255163593</Timestamp><Current dt:dt=""r8"">0</Current><DateUtc dt:dt=""string"">2016-12-23T06:07:35Z</DateUtc></FrequencyChange></FrequencyChanges></Clock>\n",2016-12-23 14:07,84.839,1,-463581712,12-23-2016,14:07:36,6:07:36,6,e,2,1,5,,,,,,,0,,-999999,18,55847,1,973,56820,,,,,,,,,aexppro111,block1,nv audio/e1_24k.wav,,,,,,,,,,,,,,,,,
nv,11,1,"<?xml version=""1.0""?>\n<Clock xmlns:dt=""urn:schemas-microsoft-com:datatypes""><Description dt:dt=""string"">E-Prime Primary Realtime Clock</Description><StartTime><Timestamp dt:dt=""int"">0</Timestamp><DateUtc dt:dt=""string"">2016-12-23T06:07:35Z</DateUtc></StartTime><FrequencyChanges><FrequencyChange><Frequency dt:dt=""r8"">3579545</Frequency><Timestamp dt:dt=""r8"">68255163593</Timestamp><Current dt:dt=""r8"">0</Current><DateUtc dt:dt=""string"">2016-12-23T06:07:35Z</DateUtc></FrequencyChange></FrequencyChanges></Clock>\n",2016-12-23 14:07,84.839,1,-463581712,12-23-2016,14:07:36,6:07:36,7,u,4,2,6,,,,,,,0,,-999999,30,57356,1,797,58153,,,,,,,,,aexppro111,block1,nv audio/u1_24k.wav
nv,11,1,"<?xml version=""1.0""?>\n<Clock xmlns:dt=""urn:schemas-microsoft-com:datatypes""><Description dt:dt=""string"">E-Prime Primary Realtime Clock</Description><StartTime><Timestamp dt:dt=""int"">0</Timestamp><DateUtc dt:dt=""string"">2016-12-23T06:07:35Z</DateUtc></StartTime><FrequencyChanges><FrequencyChange><Frequency dt:dt=""r8"">3579545</Frequency><Timestamp dt:dt=""r8"">68255163593</Timestamp><Current dt:dt=""r8"">0</Current><DateUtc dt:dt=""string"">2016-12-23T06:07:35Z</DateUtc></FrequencyChange></FrequencyChanges></Clock>\n",2016-12-23 14:07,84.839,1,-463581712,12-23-2016,14:07:36,6:07:36,8,i,3,2,7,,,,,,,0,,-999999,19,58676,1,513,59189,,,,,,,,,aexppro111,block1,nv audio/i1_24k.wav
nv,11,1,"<?xml version=""1.0""?>\n<Clock xmlns:dt=""urn:schemas-microsoft-com:datatypes""><Description dt:dt=""string"">E-Prime Primary Realtime Clock</Description><StartTime><Timestamp dt:dt=""int"">0</Timestamp><DateUtc dt:dt=""string"">2016-12-23T06:07:35Z</DateUtc></StartTime><FrequencyChanges><FrequencyChange><Frequency dt:dt=""r8"">3579545</Frequency><Timestamp dt:dt=""r8"">68255163593</Timestamp><Current dt:dt=""r8"">0</Current><DateUtc dt:dt=""string"">2016-12-23T06:07:35Z</DateUtc></FrequencyChange></FrequencyChanges></Clock>\n",2016-12-23 14:07,84.839,1,-463581712,12-23-2016,14:07:36,6:07:36,9,v,5,2,8,,,,,,,0,,-999999,30,59725,1,870,60595,,,,,,,,,aexppro111,block1,nv audio/y1_24k.wav
nv,11,1,"<?xml version=""1.0""?>\n<Clock xmlns:dt=""urn:schemas-microsoft-com:datatypes""><Description dt:dt=""string"">E-Prime Primary Realtime Clock</Description><StartTime><Timestamp dt:dt=""int"">0</Timestamp><DateUtc dt:dt=""string"">2016-12-23T06:07:35Z</DateUtc></StartTime><FrequencyChanges><FrequencyChange><Frequency dt:dt=""r8"">3579545</Frequency><Timestamp dt:dt=""r8"">68255163593</Timestamp><Current dt:dt=""r8"">0</Current><DateUtc dt:dt=""string"">2016-12-23T06:07:35Z</DateUtc></FrequencyChange></FrequencyChanges></Clock>\n",2016-12-23 14:07,84.839,1,-463581712,12-23-2016,14:07:36,6:07:36,10,a,1,2,9,,,,,,,0,,-999999,19,61128,1,819,61947,,,,,,,,,aexppro111,block1,nv audio/a1_24k.wav
nv,11,1,"<?xml version=""1.0""?>\n<Clock xmlns:dt=""urn:schemas-microsoft-com:datatypes""><Description dt:dt=""string"">E-Prime Primary Realtime Clock</Description><StartTime><Timestamp dt:dt=""int"">0</Timestamp><DateUtc dt:dt=""string"">2016-12-23T06:07:35Z</DateUtc></StartTime><FrequencyChanges><FrequencyChange><Frequency dt:dt=""r8"">3579545</Frequency><Timestamp dt:dt=""r8"">68255163593</Timestamp><Current dt:dt=""r8"">0</Current><DateUtc dt:dt=""string"">2016-12-23T06:07:35Z</DateUtc></FrequencyChange></FrequencyChanges></Clock>\n",2016-12-23 14:07,84.839,1,-463581712,12-23-2016,14:07:36,6:07:36,11,e,2,2,10,,,,,,,0,,-999999,19,62472,1,1085,63557,,,,,,,,,aexppro111,block1,nv audio/e1_24k.wav
nv,11,1,"<?xml version=""1.0""?>\n<Clock xmlns:dt=""urn:schemas-microsoft-com:datatypes""><Description dt:dt=""string"">E-Prime Primary Realtime Clock</Description><StartTime><Timestamp dt:dt=""int"">0</Timestamp><DateUtc dt:dt=""string"">2016-12-23T06:07:35Z</DateUtc></StartTime><FrequencyChanges><FrequencyChange><Frequency dt:dt=""r8"">3579545</Frequency><Timestamp dt:dt=""r8"">68255163593</Timestamp><Current dt:dt=""r8"">0</Current><DateUtc dt:dt=""string"">2016-12-23T06:07:35Z</DateUtc></FrequencyChange></FrequencyChanges></Clock>\n",2016-12-23 14:07,84.839,1,-463581712,12-23-2016,14:07:36,6:07:36,12,u,4,3,11,,,,,,,0,,-999999,18,64086,1,658,64744,,,,,,,,,aexppro111,block1,nv audio/u1_24k.wav
nv,11,1,"<?xml version=""1.0""?>\n<Clock xmlns:dt=""urn:schemas-microsoft-com:datatypes""><Description dt:dt=""string"">E-Prime Primary Realtime Clock</Description><StartTime><Timestamp dt:dt=""int"">0</Timestamp><DateUtc dt:dt=""string"">2016-12-23T06:07:35Z</DateUtc></StartTime><FrequencyChanges><FrequencyChange><Frequency dt:dt=""r8"">3579545</Frequency><Timestamp dt:dt=""r8"">68255163593</Timestamp><Current dt:dt=""r8"">0</Current><DateUtc dt:dt=""string"">2016-12-23T06:07:35Z</DateUtc></FrequencyChange></FrequencyChanges></Clock>\n",2016-12-23 14:07,84.839,1,-463581712,12-23-2016,14:07:36,6:07:36,13,v,5,3,12,,,,,,,0,,-999999,42,65300,1,993,66293,,,,,,,,,aexppro111,block1,nv audio/y1_24k.wav
nv,11,1,"<?xml version=""1.0""?>\n<Clock xmlns:dt=""urn:schemas-microsoft-com:datatypes""><Description dt:dt=""string"">E-Prime Primary Realtime Clock</Description><StartTime><Timestamp dt:dt=""int"">0</Timestamp><DateUtc dt:dt=""string"">2016-12-23T06:07:35Z</DateUtc></StartTime><FrequencyChanges><FrequencyChange><Frequency dt:dt=""r8"">3579545</Frequency><Timestamp dt:dt=""r8"">68255163593</Timestamp><Current dt:dt=""r8"">0</Current><DateUtc dt:dt=""string"">2016-12-23T06:07:35Z</DateUtc></FrequencyChange></FrequencyChanges></Clock>\n",2016-12-23 14:07,84.839,1,-463581712,12-23-2016,14:07:36,6:07:36,14,e,2,3,13,,,,,,,0,,-999999,19,66821,1,1037,67858,,,,,,,,,aexppro111,block1,nv audio/e1_24k.wav
nv,11,1,"<?xml version=""1.0""?>\n<Clock xmlns:dt=""urn:schemas-microsoft-com:datatypes""><Description dt:dt=""string"">E-Prime Primary Realtime Clock</Description><StartTime><Timestamp dt:dt=""int"">0</Timestamp><DateUtc dt:dt=""string"">2016-12-23T06:07:35Z</DateUtc></StartTime><FrequencyChanges><FrequencyChange><Frequency dt:dt=""r8"">3579545</Frequency><Timestamp dt:dt=""r8"">68255163593</Timestamp><Current dt:dt=""r8"">0</Current><DateUtc dt:dt=""string"">2016-12-23T06:07:35Z</DateUtc></FrequencyChange></FrequencyChanges></Clock>\n",2016-12-23 14:07,84.839,1,-463581712,12-23-2016,14:07:36,6:07:36,15,i,3,3,14,,,,,,,0,,-999999,30,68400,1,663,69063,,,,,,,,,aexppro111,block1,nv audio/i1_24k.wav
nv,11,1,"<?xml version=""1.0""?>\n<Clock xmlns:dt=""urn:schemas-microsoft-com:datatypes""><Description dt:dt=""string"">E-Prime Primary Realtime Clock</Description><StartTime><Timestamp dt:dt=""int"">0</Timestamp><DateUtc dt:dt=""string"">2016-12-23T06:07:35Z</DateUtc></StartTime><FrequencyChanges><FrequencyChange><Frequency dt:dt=""r8"">3579545</Frequency><Timestamp dt:dt=""r8"">68255163593</Timestamp><Current dt:dt=""r8"">0</Current><DateUtc dt:dt=""string"">2016-12-23T06:07:35Z</DateUtc></FrequencyChange></FrequencyChanges></Clock>\n",2016-12-23 14:07,84.839,1,-463581712,12-23-2016,14:07:36,6:07:36,16,a,1,3,15,,,,,,,0,,-999999,31,69603,1,847,70450,,,,,,,,,aexppro111,block1,nv audio/a1_24k.wav
nv,11,1,"<?xml version=""1.0""?>\n<Clock xmlns:dt=""urn:schemas-microsoft-com:datatypes""><Description dt:dt=""string"">E-Prime Primary Realtime Clock</Description><StartTime><Timestamp dt:dt=""int"">0</Timestamp><DateUtc dt:dt=""string"">2016-12-23T06:07:35Z</DateUtc></StartTime><FrequencyChanges><FrequencyChange><Frequency dt:dt=""r8"">3579545</Frequency><Timestamp dt:dt=""r8"">68255163593</Timestamp><Current dt:dt=""r8"">0</Current><DateUtc dt:dt=""string"">2016-12-23T06:07:35Z</DateUtc></FrequencyChange></FrequencyChanges></Clock>\n",2016-12-23 14:07,84.839,1,-463581712,12-23-2016,14:07:36,6:07:36,17,v,5,4,16,,,,,,,0,,-999999,31,70994,1,899,71893,,,,,,,,,aexppro111,block1,nv audio/y1_24k.wav
nv,11,1,"<?xml version=""1.0""?>\n<Clock xmlns:dt=""urn:schemas-microsoft-com:datatypes""><Description dt:dt=""string"">E-Prime Primary Realtime Clock</Description><StartTime><Timestamp dt:dt=""int"">0</Timestamp><DateUtc dt:dt=""string"">2016-12-23T06:07:35Z</DateUtc></StartTime><FrequencyChanges><FrequencyChange><Frequency dt:dt=""r8"">3579545</Frequency><Timestamp dt:dt=""r8"">68255163593</Timestamp><Current dt:dt=""r8"">0</Current><DateUtc dt:dt=""string"">2016-12-23T06:07:35Z</DateUtc></FrequencyChange></FrequencyChanges></Clock>\n",2016-12-23 14:07,84.839,1,-463581712,12-23-2016,14:07:36,6:07:36,18,u,4,4,17,,,,,,,0,,-999999,31,72432,1,845,73277,,,,,,,,,aexppro111,block1,nv audio/u1_24k.wav
nv,11,1,"<?xml version=""1.0""?>\n<Clock xmlns:dt=""urn:schemas-microsoft-com:datatypes""><Description dt:dt=""string"">E-Prime Primary Realtime Clock</Description><StartTime><Timestamp dt:dt=""int"">0</Timestamp><DateUtc dt:dt=""string"">2016-12-23T06:07:35Z</DateUtc></StartTime><FrequencyChanges><FrequencyChange><Frequency dt:dt=""r8"">3579545</Frequency><Timestamp dt:dt=""r8"">68255163593</Timestamp><Current dt:dt=""r8"">0</Current><DateUtc dt:dt=""string"">2016-12-23T06:07:35Z</DateUtc></FrequencyChange></FrequencyChanges></Clock>\n",2016-12-23 14:07,84.839,1,-463581712,12-23-2016,14:07:36,6:07:36,19,e,2,4,18,,,,,,,0,,-999999,31,73823,1,1290,75113,,,,,,,,,aexppro111,block1,nv audio/e1_24k.wav
nv,11,1,"<?xml version=""1.0""?>\n<Clock xmlns:dt=""urn:schemas-microsoft-com:datatypes""><Description dt:dt=""string"">E-Prime Primary Realtime Clock</Description><StartTime><Timestamp dt:dt=""int"">0</Timestamp><DateUtc dt:dt=""string"">2016-12-23T06:07:35Z</DateUtc></StartTime><FrequencyChanges><FrequencyChange><Frequency dt:dt=""r8"">3579545</Frequency><Timestamp dt:dt=""r8"">68255163593</Timestamp><Current dt:dt=""r8"">0</Current><DateUtc dt:dt=""string"">2016-12-23T06:07:35Z</DateUtc></FrequencyChange></FrequencyChanges></Clock>\n",2016-12-23 14:07,84.839,1,-463581712,12-23-2016,14:07:36,6:07:36,20,i,3,4,19,,,,,,,0,,-999999,31,75650,1,562,76212,,,,,,,,,aexppro111,block1,nv audio/i1_24k.wav
nv,11,1,"<?xml version=""1.0""?>\n<Clock xmlns:dt=""urn:schemas-microsoft-com:datatypes""><Description dt:dt=""string"">E-Prime Primary Realtime Clock</Description><StartTime><Timestamp dt:dt=""int"">0</Timestamp><DateUtc dt:dt=""string"">2016-12-23T06:07:35Z</DateUtc></StartTime><FrequencyChanges><FrequencyChange><Frequency dt:dt=""r8"">3579545</Frequency><Timestamp dt:dt=""r8"">68255163593</Timestamp><Current dt:dt=""r8"">0</Current><DateUtc dt:dt=""string"">2016-12-23T06:07:35Z</DateUtc></FrequencyChange></FrequencyChanges></Clock>\n",2016-12-23 14:07,84.839,1,-463581712,12-23-2016,14:07:36,6:07:36,21,a,1,4,20,,,,,,,0,,-999999,42,76769,1,800,77569,,,,,,,,,aexppro111,block1,nv audio/a1_24k.wav
nv,11,1,"<?xml version=""1.0""?>\n<Clock xmlns:dt=""urn:schemas-microsoft-com:datatypes""><Description dt:dt=""string"">E-Prime Primary Realtime Clock</Description><StartTime><Timestamp dt:dt=""int"">0</Timestamp><DateUtc dt:dt=""string"">2016-12-23T06:07:35Z</DateUtc></StartTime><FrequencyChanges><FrequencyChange><Frequency dt:dt=""r8"">3579545</Frequency><Timestamp dt:dt=""r8"">68255163593</Timestamp><Current dt:dt=""r8"">0</Current><DateUtc dt:dt=""string"">2016-12-23T06:07:35Z</DateUtc></FrequencyChange></FrequencyChanges></Clock>\n",2016-12-23 14:07,84.839,1,-463581712,12-23-2016,14:07:36,6:07:36,22,v,5,5,21,,,,,,,0,,-999999,18,78101,1,712,78813,,,,,,,,,aexppro111,block1,nv audio/y1_24k.wav
nv,11,1,"<?xml version=""1.0""?>\n<Clock xmlns:dt=""urn:schemas-microsoft-com:datatypes""><Description dt:dt=""string"">E-Prime Primary Realtime Clock</Description><StartTime><Timestamp dt:dt=""int"">0</Timestamp><DateUtc dt:dt=""string"">2016-12-23T06:07:35Z</DateUtc></StartTime><FrequencyChanges><FrequencyChange><Frequency dt:dt=""r8"">3579545</Frequency><Timestamp dt:dt=""r8"">68255163593</Timestamp><Current dt:dt=""r8"">0</Current><DateUtc dt:dt=""string"">2016-12-23T06:07:35Z</DateUtc></FrequencyChange></FrequencyChanges></Clock>\n",2016-12-23 14:07,84.839,1,-463581712,12-23-2016,14:07:36,6:07:36,23,a,1,5,22,,,,,,,0,,-999999,31,79351,1,746,80097,,,,,,,,,aexppro111,block1,nv audio/a1_24k.wav
nv,11,1,"<?xml version=""1.0""?>\n<Clock xmlns:dt=""urn:schemas-microsoft-com:datatypes""><Description dt:dt=""string"">E-Prime Primary Realtime Clock</Description><StartTime><Timestamp dt:dt=""int"">0</Timestamp><DateUtc dt:dt=""string"">2016-12-23T06:07:35Z</DateUtc></StartTime><FrequencyChanges><FrequencyChange><Frequency dt:dt=""r8"">3579545</Frequency><Timestamp dt:dt=""r8"">68255163593</Timestamp><Current dt:dt=""r8"">0</Current><DateUtc dt:dt=""string"">2016-12-23T06:07:35Z</DateUtc></FrequencyChange></FrequencyChanges></Clock>\n",2016-12-23 14:07,84.839,1,-463581712,12-23-2016,14:07:36,6:07:36,24,i,3,5,23,,,,,,,0,,-999999,30,80635,1,667,81302,,,,,,,,,aexppro111,block1,nv audio/i1_24k.wav
nv,11,1,"<?xml version=""1.0""?>\n<Clock xmlns:dt=""urn:schemas-microsoft-com:datatypes""><Description dt:dt=""string"">E-Prime Primary Realtime Clock</Description><StartTime><Timestamp dt:dt=""int"">0</Timestamp><DateUtc dt:dt=""string"">2016-12-23T06:07:35Z</DateUtc></StartTime><FrequencyChanges><FrequencyChange><Frequency dt:dt=""r8"">3579545</Frequency><Timestamp dt:dt=""r8"">68255163593</Timestamp><Current dt:dt=""r8"">0</Current><DateUtc dt:dt=""string"">2016-12-23T06:07:35Z</DateUtc></FrequencyChange></FrequencyChanges></Clock>\n",2016-12-23 14:07,84.839,1,-463581712,12-23-2016,14:07:36,6:07:36,25,e,2,5,24,,,,,,,0,,-999999,31,81838,1,841,82679,,,,,,,,,aexppro111,block1,nv audio/e1_24k.wav
nv,11,1,"<?xml version=""1.0""?>\n<Clock xmlns:dt=""urn:schemas-microsoft-com:datatypes""><Description dt:dt=""string"">E-Prime Primary Realtime Clock</Description><StartTime><Timestamp dt:dt=""int"">0</Timestamp><DateUtc dt:dt=""string"">2016-12-23T06:07:35Z</DateUtc></StartTime><FrequencyChanges><FrequencyChange><Frequency dt:dt=""r8"">3579545</Frequency><Timestamp dt:dt=""r8"">68255163593</Timestamp><Current dt:dt=""r8"">0</Current><DateUtc dt:dt=""string"">2016-12-23T06:07:35Z</DateUtc></FrequencyChange></FrequencyChanges></Clock>\n",2016-12-23 14:07,84.839,1,-463581712,12-23-2016,14:07:36,6:07:36,26,u,4,5,25,,,,,,,0,,-999999,19,83205,1,673,83878,,,,,,,,,aexppro111,block1,nv audio/u1_24k.wav
nv,11,1,"<?xml version=""1.0""?>\n<Clock xmlns:dt=""urn:schemas-microsoft-com:datatypes""><Description dt:dt=""string"">E-Prime Primary Realtime Clock</Description><StartTime><Timestamp dt:dt=""int"">0</Timestamp><DateUtc dt:dt=""string"">2016-12-23T06:07:35Z</DateUtc></StartTime><FrequencyChanges><FrequencyChange><Frequency dt:dt=""r8"">3579545</Frequency><Timestamp dt:dt=""r8"">68255163593</Timestamp><Current dt:dt=""r8"">0</Current><DateUtc dt:dt=""string"">2016-12-23T06:07:35Z</DateUtc></FrequencyChange></FrequencyChanges></Clock>\n",2016-12-23 14:07,84.839,1,-463581712,12-23-2016,14:07:36,6:07:36,27,i,3,6,26,,,,,,,0,,-999999,18,84407,1,718,85125,,,,,,,,,aexppro111,block1,nv audio/i1_24k.wav
nv,11,1,"<?xml version=""1.0""?>\n<Clock xmlns:dt=""urn:schemas-microsoft-com:datatypes""><Description dt:dt=""string"">E-Prime Primary Realtime Clock</Description><StartTime><Timestamp dt:dt=""int"">0</Timestamp><DateUtc dt:dt=""string"">2016-12-23T06:07:35Z</DateUtc></StartTime><FrequencyChanges><FrequencyChange><Frequency dt:dt=""r8"">3579545</Frequency><Timestamp dt:dt=""r8"">68255163593</Timestamp><Current dt:dt=""r8"">0</Current><DateUtc dt:dt=""string"">2016-12-23T06:07:35Z</DateUtc></FrequencyChange></FrequencyChanges></Clock>\n",2016-12-23 14:07,84.839,1,-463581712,12-23-2016,14:07:36,6:07:36,28,a,1,6,27,,,,,,,0,,-999999,19,85657,1,721,86378,,,,,,,,,aexppro111,block1,nv audio/a1_24k.wav
nv,11,1,"<?xml version=""1.0""?>\n<Clock xmlns:dt=""urn:schemas-microsoft-com:datatypes""><Description dt:dt=""string"">E-Prime Primary Realtime Clock</Description><StartTime><Timestamp dt:dt=""int"">0</Timestamp><DateUtc dt:dt=""string"">2016-12-23T06:07:35Z</DateUtc></StartTime><FrequencyChanges><FrequencyChange><Frequency dt:dt=""r8"">3579545</Frequency><Timestamp dt:dt=""r8"">68255163593</Timestamp><Current dt:dt=""r8"">0</Current><DateUtc dt:dt=""string"">2016-12-23T06:07:35Z</DateUtc></FrequencyChange></FrequencyChanges></Clock>\n",2016-12-23 14:07,84.839,1,-463581712,12-23-2016,14:07:36,6:07:36,29,v,5,6,28,,,,,,,0,,-999999,30,86918,1,732,87650,,,,,,,,,aexppro111,block1,nv audio/y1_24k.wav
nv,11,1,"<?xml version=""1.0""?>\n<Clock xmlns:dt=""urn:schemas-microsoft-com:datatypes""><Description dt:dt=""string"">E-Prime Primary Realtime Clock</Description><StartTime><Timestamp dt:dt=""int"">0</Timestamp><DateUtc dt:dt=""string"">2016-12-23T06:07:35Z</DateUtc></StartTime><FrequencyChanges><FrequencyChange><Frequency dt:dt=""r8"">3579545</Frequency><Timestamp dt:dt=""r8"">68255163593</Timestamp><Current dt:dt=""r8"">0</Current><DateUtc dt:dt=""string"">2016-12-23T06:07:35Z</DateUtc></FrequencyChange></FrequencyChanges></Clock>\n",2016-12-23 14:07,84.839,1,-463581712,12-23-2016,14:07:36,6:07:36,30,u,4,6,29,,,,,,,0,,-999999,18,88179,1,683,88862,,,,,,,,,aexppro111,block1,nv audio/u1_24k.wav
nv,11,1,"<?xml version=""1.0""?>\n<Clock xmlns:dt=""urn:schemas-microsoft-com:datatypes""><Description dt:dt=""string"">E-Prime Primary Realtime Clock</Description><StartTime><Timestamp dt:dt=""int"">0</Timestamp><DateUtc dt:dt=""string"">2016-12-23T06:07:35Z</DateUtc></StartTime><FrequencyChanges><FrequencyChange><Frequency dt:dt=""r8"">3579545</Frequency><Timestamp dt:dt=""r8"">68255163593</Timestamp><Current dt:dt=""r8"">0</Current><DateUtc dt:dt=""string"">2016-12-23T06:07:35Z</DateUtc></FrequencyChange></FrequencyChanges></Clock>\n",2016-12-23 14:07,84.839,1,-463581712,12-23-2016,14:07:36,6:07:36,31,e,2,6,30,,,,,,,0,,-999999,18,89393,1,602,89995,,,,,,,,,aexppro111,block1,nv audio/e1_24k.wav
nv,11,1,"<?xml version=""1.0""?>\n<Clock xmlns:dt=""urn:schemas-microsoft-com:datatypes""><Description dt:dt=""string"">E-Prime Primary Realtime Clock</Description><StartTime><Timestamp dt:dt=""int"">0</Timestamp><DateUtc dt:dt=""string"">2016-12-23T06:07:35Z</DateUtc></StartTime><FrequencyChanges><FrequencyChange><Frequency dt:dt=""r8"">3579545</Frequency><Timestamp dt:dt=""r8"">68255163593</Timestamp><Current dt:dt=""r8"">0</Current><DateUtc dt:dt=""string"">2016-12-23T06:07:35Z</DateUtc></FrequencyChange></FrequencyChanges></Clock>\n",2016-12-23 14:07,84.839,1,-463581712,12-23-2016,14:07:36,6:07:36,32,e,2,7,31,,,,,,,0,,-999999,19,90525,1,645,91170,,,,,,,,,aexppro111,block1,nv audio/e1_24k.wav
nv,11,1,"<?xml version=""1.0""?>\n<Clock xmlns:dt=""urn:schemas-microsoft-com:datatypes""><Description dt:dt=""string"">E-Prime Primary Realtime Clock</Description><StartTime><Timestamp dt:dt=""int"">0</Timestamp><DateUtc dt:dt=""string"">2016-12-23T06:07:35Z</DateUtc></StartTime><FrequencyChanges><FrequencyChange><Frequency dt:dt=""r8"">3579545</Frequency><Timestamp dt:dt=""r8"">68255163593</Timestamp><Current dt:dt=""r8"">0</Current><DateUtc dt:dt=""string"">2016-12-23T06:07:35Z</DateUtc></FrequencyChange></FrequencyChanges></Clock>\n",2016-12-23 14:07,84.839,1,-463581712,12-23-2016,14:07:36,6:07:36,33,u,4,7,32,,,,,,,0,,-999999,19,91692,1,653,92345,,,,,,,,,aexppro111,block1,nv audio/u1_24k.wav
nv,11,1,"<?xml version=""1.0""?>\n<Clock xmlns:dt=""urn:schemas-microsoft-com:datatypes""><Description dt:dt=""string"">E-Prime Primary Realtime Clock</Description><StartTime><Timestamp dt:dt=""int"">0</Timestamp><DateUtc dt:dt=""string"">2016-12-23T06:07:35Z</DateUtc></StartTime><FrequencyChanges><FrequencyChange><Frequency dt:dt=""r8"">3579545</Frequency><Timestamp dt:dt=""r8"">68255163593</Timestamp><Current dt:dt=""r8"">0</Current><DateUtc dt:dt=""string"">2016-12-23T06:07:35Z</DateUtc></FrequencyChange></FrequencyChanges></Clock>\n",2016-12-23 14:07,84.839,1,-463581712,12-23-2016,14:07:36,6:07:36,34,v,5,7,33,,,,,,,0,,-999999,42,92894,1,977,93871,,,,,,,,,aexppro111,block1,nv audio/y1_24k.wav
nv,11,1,"<?xml version=""1.0""?>\n<Clock xmlns:dt=""urn:schemas-microsoft-com:datatypes""><Description dt:dt=""string"">E-Prime Primary Realtime Clock</Description><StartTime><Timestamp dt:dt=""int"">0</Timestamp><DateUtc dt:dt=""string"">2016-12-23T06:07:35Z</DateUtc></StartTime><FrequencyChanges><FrequencyChange><Frequency dt:dt=""r8"">3579545</Frequency><Timestamp dt:dt=""r8"">68255163593</Timestamp><Current dt:dt=""r8"">0</Current><DateUtc dt:dt=""string"">2016-12-23T06:07:35Z</DateUtc></FrequencyChange></FrequencyChanges></Clock>\n",2016-12-23 14:07,84.839,1,-463581712,12-23-2016,14:07:36,6:07:36,35,i,3,7,34,,,,,,,0,,-999999,31,94415,1,410,94825,,,,,,,,,aexppro111,block1,nv audio/i1_24k.wav
nv,11,1,"<?xml version=""1.0""?>\n<Clock xmlns:dt=""urn:schemas-microsoft-com:datatypes""><Description dt:dt=""string"">E-Prime Primary Realtime Clock</Description><StartTime><Timestamp dt:dt=""int"">0</Timestamp><DateUtc dt:dt=""string"">2016-12-23T06:07:35Z</DateUtc></StartTime><FrequencyChanges><FrequencyChange><Frequency dt:dt=""r8"">3579545</Frequency><Timestamp dt:dt=""r8"">68255163593</Timestamp><Current dt:dt=""r8"">0</Current><DateUtc dt:dt=""string"">2016-12-23T06:07:35Z</DateUtc></FrequencyChange></FrequencyChanges></Clock>\n",2016-12-23 14:07,84.839,1,-463581712,12-23-2016,14:07:36,6:07:36,36,a,1,7,35,,,,,,,0,,-999999,30,95369,1,768,96137,,,,,,,,,aexppro111,block1,nv audio/a1_24k.wav
nv,11,1,"<?xml version=""1.0""?>\n<Clock xmlns:dt=""urn:schemas-microsoft-com:datatypes""><Description dt:dt=""string"">E-Prime Primary Realtime Clock</Description><StartTime><Timestamp dt:dt=""int"">0</Timestamp><DateUtc dt:dt=""string"">2016-12-23T06:07:35Z</DateUtc></StartTime><FrequencyChanges><FrequencyChange><Frequency dt:dt=""r8"">3579545</Frequency><Timestamp dt:dt=""r8"">68255163593</Timestamp><Current dt:dt=""r8"">0</Current><DateUtc dt:dt=""string"">2016-12-23T06:07:35Z</DateUtc></FrequencyChange></FrequencyChanges></Clock>\n",2016-12-23 14:07,84.839,1,-463581712,12-23-2016,14:07:36,6:07:36,37,i,3,8,36,,,,,,,0,,-999999,19,96666,1,443,97109,,,,,,,,,aexppro111,block1,nv audio/i1_24k.wav
nv,11,1,"<?xml version=""1.0""?>\n<Clock xmlns:dt=""urn:schemas-microsoft-com:datatypes""><Description dt:dt=""string"">E-Prime Primary Realtime Clock</Description><StartTime><Timestamp dt:dt=""int"">0</Timestamp><DateUtc dt:dt=""string"">2016-12-23T06:07:35Z</DateUtc></StartTime><FrequencyChanges><FrequencyChange><Frequency dt:dt=""r8"">3579545</Frequency><Timestamp dt:dt=""r8"">68255163593</Timestamp><Current dt:dt=""r8"">0</Current><DateUtc dt:dt=""string"">2016-12-23T06:07:35Z</DateUtc></FrequencyChange></FrequencyChanges></Clock>\n",2016-12-23 14:07,84.839,1,-463581712,12-23-2016,14:07:36,6:07:36,38,,1,8,37,,,,,,,0,,-999999,18,97632,1,748,98380,,,,,,,,,aexppro111,block1,nv audio/a1_24k.wav
nv,11,1,"<?xml version=""1.0""?>\n<Clock xmlns:dt=""urn:schemas-microsoft-com:datatypes""><Description dt:dt=""string"">E-Prime Primary Realtime Clock</Description><StartTime><Timestamp dt:dt=""int"">0</Timestamp><DateUtc dt:dt=""string"">2016-12-23T06:07:35Z</DateUtc></StartTime><FrequencyChanges><FrequencyChange><Frequency dt:dt=""r8"">3579545</Frequency><Timestamp dt:dt=""r8"">68255163593</Timestamp><Current dt:dt=""r8"">0</Current><DateUtc dt:dt=""string"">2016-12-23T06:07:35Z</DateUtc></FrequencyChange></FrequencyChanges></Clock>\n",2016-12-23 14:07,84.839,1,-463581712,12-23-2016,14:07:36,6:07:36,39,v,5,8,38,,,,,,,0,,-999999,18,99907,1,900,100807,,,,,,,,,aexppro111,block1,nv audio/y1_24k.wav,
nv,11,1,"<?xml version=""1.0""?>\n<Clock xmlns:dt=""urn:schemas-microsoft-com:datatypes""><Description dt:dt=""string"">E-Prime Primary Realtime Clock</Description><StartTime><Timestamp dt:dt=""int"">0</Timestamp><DateUtc dt:dt=""string"">2016-12-23T06:07:35Z</DateUtc></StartTime><FrequencyChanges><FrequencyChange><Frequency dt:dt=""r8"">3579545</Frequency><Timestamp dt:dt=""r8"">68255163593</Timestamp><Current dt:dt=""r8"">0</Current><DateUtc dt:dt=""string"">2016-12-23T06:07:35Z</DateUtc></FrequencyChange></FrequencyChanges></Clock>\n",2016-12-23 14:07,84.839,1,-463581712,12-23-2016,14:07:36,6:07:36,40,u,4,8,39,,,,,,,0,,-999999,19,101334,1,749,102083,,,,,,,,,aexppro111,block1,nv audio/u1_24k.wav,
nv,11,1,"<?xml version=""1.0""?>\n<Clock xmlns:dt=""urn:schemas-microsoft-com:datatypes""><Description dt:dt=""string"">E-Prime Primary Realtime Clock</Description><StartTime><Timestamp dt:dt=""int"">0</Timestamp><DateUtc dt:dt=""string"">2016-12-23T06:07:35Z</DateUtc></StartTime><FrequencyChanges><FrequencyChange><Frequency dt:dt=""r8"">3579545</Frequency><Timestamp dt:dt=""r8"">68255163593</Timestamp><Current dt:dt=""r8"">0</Current><DateUtc dt:dt=""string"">2016-12-23T06:07:35Z</DateUtc></FrequencyChange></FrequencyChanges></Clock>\n",2016-12-23 14:07,84.839,1,-463581712,12-23-2016,14:07:36,6:07:36,41,e,2,8,40,,,,,,,0,,-999999,30,102618,1,699,103317,,,,,,,,,aexppro111,block1,nv audio/e1_24k.wav,
nv,11,1,"<?xml version=""1.0""?>\n<Clock xmlns:dt=""urn:schemas-microsoft-com:datatypes""><Description dt:dt=""string"">E-Prime Primary Realtime Clock</Description><StartTime><Timestamp dt:dt=""int"">0</Timestamp><DateUtc dt:dt=""string"">2016-12-23T06:07:35Z</DateUtc></StartTime><FrequencyChanges><FrequencyChange><Frequency dt:dt=""r8"">3579545</Frequency><Timestamp dt:dt=""r8"">68255163593</Timestamp><Current dt:dt=""r8"">0</Current><DateUtc dt:dt=""string"">2016-12-23T06:07:35Z</DateUtc></FrequencyChange></FrequencyChanges></Clock>\n",2016-12-23 14:07,84.839,1,-463581712,12-23-2016,14:07:36,6:07:36,42,u,4,9,41,,,,,,,0,,-999999,18,103844,1,569,104413,,,,,,,,,aexppro111,block1,nv audio/u1_24k.wav,
nv,11,1,"<?xml version=""1.0""?>\n<Clock xmlns:dt=""urn:schemas-microsoft-com:datatypes""><Description dt:dt=""string"">E-Prime Primary Realtime Clock</Description><StartTime><Timestamp dt:dt=""int"">0</Timestamp><DateUtc dt:dt=""string"">2016-12-23T06:07:35Z</DateUtc></StartTime><FrequencyChanges><FrequencyChange><Frequency dt:dt=""r8"">3579545</Frequency><Timestamp dt:dt=""r8"">68255163593</Timestamp><Current dt:dt=""r8"">0</Current><DateUtc dt:dt=""string"">2016-12-23T06:07:35Z</DateUtc></FrequencyChange></FrequencyChanges></Clock>\n",2016-12-23 14:07,84.839,1,-463581712,12-23-2016,14:07:36,6:07:36,43,e,2,9,42,,,,,,,0,,-999999,18,104940,1,696,105636,,,,,,,,,aexppro111,block1,nv audio/e1_24k.wav,
nv,11,1,"<?xml version=""1.0""?>\n<Clock xmlns:dt=""urn:schemas-microsoft-com:datatypes""><Description dt:dt=""string"">E-Prime Primary Realtime Clock</Description><StartTime><Timestamp dt:dt=""int"">0</Timestamp><DateUtc dt:dt=""string"">2016-12-23T06:07:35Z</DateUtc></StartTime><FrequencyChanges><FrequencyChange><Frequency dt:dt=""r8"">3579545</Frequency><Timestamp dt:dt=""r8"">68255163593</Timestamp><Current dt:dt=""r8"">0</Current><DateUtc dt:dt=""string"">2016-12-23T06:07:35Z</DateUtc></FrequencyChange></FrequencyChanges></Clock>\n",2016-12-23 14:07,84.839,1,-463581712,12-23-2016,14:07:36,6:07:36,44,a,1,9,43,,,,,,,0,,-999999,42,106190,1,785,106975,,,,,,,,,aexppro111,block1,nv audio/a1_24k.wav,
nv,11,1,"<?xml version=""1.0""?>\n<Clock xmlns:dt=""urn:schemas-microsoft-com:datatypes""><Description dt:dt=""string"">E-Prime Primary Realtime Clock</Description><StartTime><Timestamp dt:dt=""int"">0</Timestamp><DateUtc dt:dt=""string"">2016-12-23T06:07:35Z</DateUtc></StartTime><FrequencyChanges><FrequencyChange><Frequency dt:dt=""r8"">3579545</Frequency><Timestamp dt:dt=""r8"">68255163593</Timestamp><Current dt:dt=""r8"">0</Current><DateUtc dt:dt=""string"">2016-12-23T06:07:35Z</DateUtc></FrequencyChange></FrequencyChanges></Clock>\n",2016-12-23 14:07,84.839,1,-463581712,12-23-2016,14:07:36,6:07:36,45,i,3,9,44,,,,,,,0,,-999999,30,107510,1,522,108032,,,,,,,,,aexppro111,block1,nv audio/i1_24k.wav,
nv,11,1,"<?xml version=""1.0""?>\n<Clock xmlns:dt=""urn:schemas-microsoft-com:datatypes""><Description dt:dt=""string"">E-Prime Primary Realtime Clock</Description><StartTime><Timestamp dt:dt=""int"">0</Timestamp><DateUtc dt:dt=""string"">2016-12-23T06:07:35Z</DateUtc></StartTime><FrequencyChanges><FrequencyChange><Frequency dt:dt=""r8"">3579545</Frequency><Timestamp dt:dt=""r8"">68255163593</Timestamp><Current dt:dt=""r8"">0</Current><DateUtc dt:dt=""string"">2016-12-23T06:07:35Z</DateUtc></FrequencyChange></FrequencyChanges></Clock>\n",2016-12-23 14:07,84.839,1,-463581712,12-23-2016,14:07:36,6:07:36,46,v,5,9,45,,,,,,,0,,-999999,31,108571,1,827,109398,,,,,,,,,aexppro111,block1,nv audio/y1_24k.wav,
nv,11,1,"<?xml version=""1.0""?>\n<Clock xmlns:dt=""urn:schemas-microsoft-com:datatypes""><Description dt:dt=""string"">E-Prime Primary Realtime Clock</Description><StartTime><Timestamp dt:dt=""int"">0</Timestamp><DateUtc dt:dt=""string"">2016-12-23T06:07:35Z</DateUtc></StartTime><FrequencyChanges><FrequencyChange><Frequency dt:dt=""r8"">3579545</Frequency><Timestamp dt:dt=""r8"">68255163593</Timestamp><Current dt:dt=""r8"">0</Current><DateUtc dt:dt=""string"">2016-12-23T06:07:35Z</DateUtc></FrequencyChange></FrequencyChanges></Clock>\n",2016-12-23 14:07,84.839,1,-463581712,12-23-2016,14:07:36,6:07:36,47,e,2,10,46,,,,,,,0,,-999999,18,109926,1,736,110662,,,,,,,,,aexppro111,block1,nv audio/e1_24k.wav,
nv,11,1,"<?xml version=""1.0""?>\n<Clock xmlns:dt=""urn:schemas-microsoft-com:datatypes""><Description dt:dt=""string"">E-Prime Primary Realtime Clock</Description><StartTime><Timestamp dt:dt=""int"">0</Timestamp><DateUtc dt:dt=""string"">2016-12-23T06:07:35Z</DateUtc></StartTime><FrequencyChanges><FrequencyChange><Frequency dt:dt=""r8"">3579545</Frequency><Timestamp dt:dt=""r8"">68255163593</Timestamp><Current dt:dt=""r8"">0</Current><DateUtc dt:dt=""string"">2016-12-23T06:07:35Z</DateUtc></FrequencyChange></FrequencyChanges></Clock>\n",2016-12-23 14:07,84.839,1,-463581712,12-23-2016,14:07:36,6:07:36,48,u,5,10,47,,,,,,,0,,-999999,19,111188,1,1223,112411,,,,,,,,,aexppro111,block1,nv audio/y1_24k.wav,
nv,11,1,"<?xml version=""1.0""?>\n<Clock xmlns:dt=""urn:schemas-microsoft-com:datatypes""><Description dt:dt=""string"">E-Prime Primary Realtime Clock</Description><StartTime><Timestamp dt:dt=""int"">0</Timestamp><DateUtc dt:dt=""string"">2016-12-23T06:07:35Z</DateUtc></StartTime><FrequencyChanges><FrequencyChange><Frequency dt:dt=""r8"">3579545</Frequency><Timestamp dt:dt=""r8"">68255163593</Timestamp><Current dt:dt=""r8"">0</Current><DateUtc dt:dt=""string"">2016-12-23T06:07:35Z</DateUtc></FrequencyChange></FrequencyChanges></Clock>\n",2016-12-23 14:07,84.839,1,-463581712,12-23-2016,14:07:36,6:07:36,49,a,1,10,48,,,,,,,0,,-999999,19,112944,1,1304,114248,,,,,,,,,aexppro111,block1,nv audio/a1_24k.wav,
nv,11,1,"<?xml version=""1.0""?>\n<Clock xmlns:dt=""urn:schemas-microsoft-com:datatypes""><Description dt:dt=""string"">E-Prime Primary Realtime Clock</Description><StartTime><Timestamp dt:dt=""int"">0</Timestamp><DateUtc dt:dt=""string"">2016-12-23T06:07:35Z</DateUtc></StartTime><FrequencyChanges><FrequencyChange><Frequency dt:dt=""r8"">3579545</Frequency><Timestamp dt:dt=""r8"">68255163593</Timestamp><Current dt:dt=""r8"">0</Current><DateUtc dt:dt=""string"">2016-12-23T06:07:35Z</DateUtc></FrequencyChange></FrequencyChanges></Clock>\n",2016-12-23 14:07,84.839,1,-463581712,12-23-2016,14:07:36,6:07:36,50,i,3,10,49,,,,,,,0,,-999999,19,114771,1,509,115280,,,,,,,,,aexppro111,block1,nv audio/i1_24k.wav,
nv,11,1,"<?xml version=""1.0""?>\n<Clock xmlns:dt=""urn:schemas-microsoft-com:datatypes""><Description dt:dt=""string"">E-Prime Primary Realtime Clock</Description><StartTime><Timestamp dt:dt=""int"">0</Timestamp><DateUtc dt:dt=""string"">2016-12-23T06:07:35Z</DateUtc></StartTime><FrequencyChanges><FrequencyChange><Frequency dt:dt=""r8"">3579545</Frequency><Timestamp dt:dt=""r8"">68255163593</Timestamp><Current dt:dt=""r8"">0</Current><DateUtc dt:dt=""string"">2016-12-23T06:07:35Z</DateUtc></FrequencyChange></FrequencyChanges></Clock>\n",2016-12-23 14:07,84.839,1,-463581712,12-23-2016,14:07:36,6:07:36,51,u,4,10,50,,,,,,,0,,-999999,30,115820,1,771,116591,,,,,,,,,aexppro111,block1,nv audio/u1_24k.wav,
nv,11,1,"<?xml version=""1.0""?>\n<Clock xmlns:dt=""urn:schemas-microsoft-com:datatypes""><Description dt:dt=""string"">E-Prime Primary Realtime Clock</Description><StartTime><Timestamp dt:dt=""int"">0</Timestamp><DateUtc dt:dt=""string"">2016-12-23T06:07:35Z</DateUtc></StartTime><FrequencyChanges><FrequencyChange><Frequency dt:dt=""r8"">3579545</Frequency><Timestamp dt:dt=""r8"">68255163593</Timestamp><Current dt:dt=""r8"">0</Current><DateUtc dt:dt=""string"">2016-12-23T06:07:35Z</DateUtc></FrequencyChange></FrequencyChanges></Clock>\n",2016-12-23 14:07,84.839,1,-463581712,12-23-2016,14:07:36,6:07:36,52,e,,,,2,1,1,,,,,,,,,,,,0,,-999999,23,178645,1,878,179523,aexppro112,block2,,nv audio/e1_24k.wav
nv,11,1,"<?xml version=""1.0""?>\n<Clock xmlns:dt=""urn:schemas-microsoft-com:datatypes""><Description dt:dt=""string"">E-Prime Primary Realtime Clock</Description><StartTime><Timestamp dt:dt=""int"">0</Timestamp><DateUtc dt:dt=""string"">2016-12-23T06:07:35Z</DateUtc></StartTime><FrequencyChanges><FrequencyChange><Frequency dt:dt=""r8"">3579545</Frequency><Timestamp dt:dt=""r8"">68255163593</Timestamp><Current dt:dt=""r8"">0</Current><DateUtc dt:dt=""string"">2016-12-23T06:07:35Z</DateUtc></FrequencyChange></FrequencyChanges></Clock>\n",2016-12-23 14:07,84.839,1,-463581712,12-23-2016,14:07:36,6:07:36,53,i,,,,3,1,2,,,,,,,,,,,,0,,-999999,19,180048,1,533,180581,aexppro112,block2,,nv audio/i1_24k.wav
nv,11,1,"<?xml version=""1.0""?>\n<Clock xmlns:dt=""urn:schemas-microsoft-com:datatypes""><Description dt:dt=""string"">E-Prime Primary Realtime Clock</Description><StartTime><Timestamp dt:dt=""int"">0</Timestamp><DateUtc dt:dt=""string"">2016-12-23T06:07:35Z</DateUtc></StartTime><FrequencyChanges><FrequencyChange><Frequency dt:dt=""r8"">3579545</Frequency><Timestamp dt:dt=""r8"">68255163593</Timestamp><Current dt:dt=""r8"">0</Current><DateUtc dt:dt=""string"">2016-12-23T06:07:35Z</DateUtc></FrequencyChange></FrequencyChanges></Clock>\n",2016-12-23 14:07,84.839,1,-463581712,12-23-2016,14:07:36,6:07:36,54,v,,,,5,1,3,,,,,,,,,,,,0,,-999999,19,181109,1,799,181908,aexppro112,block2,,nv audio/y1_24k.wav
nv,11,1,"<?xml version=""1.0""?>\n<Clock xmlns:dt=""urn:schemas-microsoft-com:datatypes""><Description dt:dt=""string"">E-Prime Primary Realtime Clock</Description><StartTime><Timestamp dt:dt=""int"">0</Timestamp><DateUtc dt:dt=""string"">2016-12-23T06:07:35Z</DateUtc></StartTime><FrequencyChanges><FrequencyChange><Frequency dt:dt=""r8"">3579545</Frequency><Timestamp dt:dt=""r8"">68255163593</Timestamp><Current dt:dt=""r8"">0</Current><DateUtc dt:dt=""string"">2016-12-23T06:07:35Z</DateUtc></FrequencyChange></FrequencyChanges></Clock>\n",2016-12-23 14:07,84.839,1,-463581712,12-23-2016,14:07:36,6:07:36,55,a,,,,1,1,4,,,,,,,,,,,,0,,-999999,19,182441,1,724,183165,aexppro112,block2,,nv audio/a1_24k.wav
nv,11,1,"<?xml version=""1.0""?>\n<Clock xmlns:dt=""urn:schemas-microsoft-com:datatypes""><Description dt:dt=""string"">E-Prime Primary Realtime Clock</Description><StartTime><Timestamp dt:dt=""int"">0</Timestamp><DateUtc dt:dt=""string"">2016-12-23T06:07:35Z</DateUtc></StartTime><FrequencyChanges><FrequencyChange><Frequency dt:dt=""r8"">3579545</Frequency><Timestamp dt:dt=""r8"">68255163593</Timestamp><Current dt:dt=""r8"">0</Current><DateUtc dt:dt=""string"">2016-12-23T06:07:35Z</DateUtc></FrequencyChange></FrequencyChanges></Clock>\n",2016-12-23 14:07,84.839,1,-463581712,12-23-2016,14:07:36,6:07:36,56,u,,,,4,1,5,,,,,,,,,,,,0,,-999999,19,183690,1,655,184345,aexppro112,block2,,nv audio/u1_24k.wav
nv,11,1,"<?xml version=""1.0""?>\n<Clock xmlns:dt=""urn:schemas-microsoft-com:datatypes""><Description dt:dt=""string"">E-Prime Primary Realtime Clock</Description><StartTime><Timestamp dt:dt=""int"">0</Timestamp><DateUtc dt:dt=""string"">2016-12-23T06:07:35Z</DateUtc></StartTime><FrequencyChanges><FrequencyChange><Frequency dt:dt=""r8"">3579545</Frequency><Timestamp dt:dt=""r8"">68255163593</Timestamp><Current dt:dt=""r8"">0</Current><DateUtc dt:dt=""string"">2016-12-23T06:07:35Z</DateUtc></FrequencyChange></FrequencyChanges></Clock>\n",2016-12-23 14:07,84.839,1,-463581712,12-23-2016,14:07:36,6:07:36,57,e,,,,2,2,6,,,,,,,,,,,,0,,-999999,31,184881,1,610,185491,aexppro112,block2,,nv audio/e1_24k.wav
nv,11,1,"<?xml version=""1.0""?>\n<Clock xmlns:dt=""urn:schemas-microsoft-com:datatypes""><Description dt:dt=""string"">E-Prime Primary Realtime Clock</Description><StartTime><Timestamp dt:dt=""int"">0</Timestamp><DateUtc dt:dt=""string"">2016-12-23T06:07:35Z</DateUtc></StartTime><FrequencyChanges><FrequencyChange><Frequency dt:dt=""r8"">3579545</Frequency><Timestamp dt:dt=""r8"">68255163593</Timestamp><Current dt:dt=""r8"">0</Current><DateUtc dt:dt=""string"">2016-12-23T06:07:35Z</DateUtc></FrequencyChange></FrequencyChanges></Clock>\n",2016-12-23 14:07,84.839,1,-463581712,12-23-2016,14:07:36,6:07:36,58,a,,,,1,2,7,,,,,,,,,,,,0,,-999999,19,186024,1,747,186771,aexppro112,block2,,nv audio/a1_24k.wav
nv,11,1,"<?xml version=""1.0""?>\n<Clock xmlns:dt=""urn:schemas-microsoft-com:datatypes""><Description dt:dt=""string"">E-Prime Primary Realtime Clock</Description><StartTime><Timestamp dt:dt=""int"">0</Timestamp><DateUtc dt:dt=""string"">2016-12-23T06:07:35Z</DateUtc></StartTime><FrequencyChanges><FrequencyChange><Frequency dt:dt=""r8"">3579545</Frequency><Timestamp dt:dt=""r8"">68255163593</Timestamp><Current dt:dt=""r8"">0</Current><DateUtc dt:dt=""string"">2016-12-23T06:07:35Z</DateUtc></FrequencyChange></FrequencyChanges></Clock>\n",2016-12-23 14:07,84.839,1,-463581712,12-23-2016,14:07:36,6:07:36,59,u,,,,4,2,8,,,,,,,,,,,,0,,-999999,19,187297,1,471,187768,aexppro112,block2,,nv audio/u1_24k.wav
nv,11,1,"<?xml version=""1.0""?>\n<Clock xmlns:dt=""urn:schemas-microsoft-com:datatypes""><Description dt:dt=""string"">E-Prime Primary Realtime Clock</Description><StartTime><Timestamp dt:dt=""int"">0</Timestamp><DateUtc dt:dt=""string"">2016-12-23T06:07:35Z</DateUtc></StartTime><FrequencyChanges><FrequencyChange><Frequency dt:dt=""r8"">3579545</Frequency><Timestamp dt:dt=""r8"">68255163593</Timestamp><Current dt:dt=""r8"">0</Current><DateUtc dt:dt=""string"">2016-12-23T06:07:35Z</DateUtc></FrequencyChange></FrequencyChanges></Clock>\n",2016-12-23 14:07,84.839,1,-463581712,12-23-2016,14:07:36,6:07:36,60,i,,,,3,2,9,,,,,,,,,,,,0,,-999999,19,188299,1,579,188878,aexppro112,block2,,nv audio/i1_24k.wav
nv,11,1,"<?xml version=""1.0""?>\n<Clock xmlns:dt=""urn:schemas-microsoft-com:datatypes""><Description dt:dt=""string"">E-Prime Primary Realtime Clock</Description><StartTime><Timestamp dt:dt=""int"">0</Timestamp><DateUtc dt:dt=""string"">2016-12-23T06:07:35Z</DateUtc></StartTime><FrequencyChanges><FrequencyChange><Frequency dt:dt=""r8"">3579545</Frequency><Timestamp dt:dt=""r8"">68255163593</Timestamp><Current dt:dt=""r8"">0</Current><DateUtc dt:dt=""string"">2016-12-23T06:07:35Z</DateUtc></FrequencyChange></FrequencyChanges></Clock>\n",2016-12-23 14:07,84.839,1,-463581712,12-23-2016,14:07:36,6:07:36,61,v,,,,5,2,10,,,,,,,,,,,,0,,-999999,19,189407,1,641,190048,aexppro112,block2,,nv audio/y1_24k.wav
nv,11,1,"<?xml version=""1.0""?>\n<Clock xmlns:dt=""urn:schemas-microsoft-com:datatypes""><Description dt:dt=""string"">E-Prime Primary Realtime Clock</Description><StartTime><Timestamp dt:dt=""int"">0</Timestamp><DateUtc dt:dt=""string"">2016-12-23T06:07:35Z</DateUtc></StartTime><FrequencyChanges><FrequencyChange><Frequency dt:dt=""r8"">3579545</Frequency><Timestamp dt:dt=""r8"">68255163593</Timestamp><Current dt:dt=""r8"">0</Current><DateUtc dt:dt=""string"">2016-12-23T06:07:35Z</DateUtc></FrequencyChange></FrequencyChanges></Clock>\n",2016-12-23 14:07,84.839,1,-463581712,12-23-2016,14:07:36,6:07:36,62,a,,,,1,3,11,,,,,,,,,,,,0,,-999999,30,190585,1,675,191260,aexppro112,block2,,nv audio/a1_24k.wav
nv,11,1,"<?xml version=""1.0""?>\n<Clock xmlns:dt=""urn:schemas-microsoft-com:datatypes""><Description dt:dt=""string"">E-Prime Primary Realtime Clock</Description><StartTime><Timestamp dt:dt=""int"">0</Timestamp><DateUtc dt:dt=""string"">2016-12-23T06:07:35Z</DateUtc></StartTime><FrequencyChanges><FrequencyChange><Frequency dt:dt=""r8"">3579545</Frequency><Timestamp dt:dt=""r8"">68255163593</Timestamp><Current dt:dt=""r8"">0</Current><DateUtc dt:dt=""string"">2016-12-23T06:07:35Z</DateUtc></FrequencyChange></FrequencyChanges></Clock>\n",2016-12-23 14:07,84.839,1,-463581712,12-23-2016,14:07:36,6:07:36,63,v,,,,4,3,12,,,,,,,,,,,,0,,-999999,19,191788,1,776,192564,aexppro112,block2,,nv audio/u1_24k.wav
nv,11,1,"<?xml version=""1.0""?>\n<Clock xmlns:dt=""urn:schemas-microsoft-com:datatypes""><Description dt:dt=""string"">E-Prime Primary Realtime Clock</Description><StartTime><Timestamp dt:dt=""int"">0</Timestamp><DateUtc dt:dt=""string"">2016-12-23T06:07:35Z</DateUtc></StartTime><FrequencyChanges><FrequencyChange><Frequency dt:dt=""r8"">3579545</Frequency><Timestamp dt:dt=""r8"">68255163593</Timestamp><Current dt:dt=""r8"">0</Current><DateUtc dt:dt=""string"">2016-12-23T06:07:35Z</DateUtc></FrequencyChange></FrequencyChanges></Clock>\n",2016-12-23 14:07,84.839,1,-463581712,12-23-2016,14:07:36,6:07:36,64,v,,,,5,3,13,,,,,,,,,,,,0,,-999999,19,193096,1,826,193922,aexppro112,block2,,nv audio/y1_24k.wav
nv,11,1,"<?xml version=""1.0""?>\n<Clock xmlns:dt=""urn:schemas-microsoft-com:datatypes""><Description dt:dt=""string"">E-Prime Primary Realtime Clock</Description><StartTime><Timestamp dt:dt=""int"">0</Timestamp><DateUtc dt:dt=""string"">2016-12-23T06:07:35Z</DateUtc></StartTime><FrequencyChanges><FrequencyChange><Frequency dt:dt=""r8"">3579545</Frequency><Timestamp dt:dt=""r8"">68255163593</Timestamp><Current dt:dt=""r8"">0</Current><DateUtc dt:dt=""string"">2016-12-23T06:07:35Z</DateUtc></FrequencyChange></FrequencyChanges></Clock>\n",2016-12-23 14:07,84.839,1,-463581712,12-23-2016,14:07:36,6:07:36,65,e,,,,2,3,14,,,,,,,,,,,,0,,-999999,19,194452,1,706,195158,aexppro112,block2,,nv audio/e1_24k.wav
nv,11,1,"<?xml version=""1.0""?>\n<Clock xmlns:dt=""urn:schemas-microsoft-com:datatypes""><Description dt:dt=""string"">E-Prime Primary Realtime Clock</Description><StartTime><Timestamp dt:dt=""int"">0</Timestamp><DateUtc dt:dt=""string"">2016-12-23T06:07:35Z</DateUtc></StartTime><FrequencyChanges><FrequencyChange><Frequency dt:dt=""r8"">3579545</Frequency><Timestamp dt:dt=""r8"">68255163593</Timestamp><Current dt:dt=""r8"">0</Current><DateUtc dt:dt=""string"">2016-12-23T06:07:35Z</DateUtc></FrequencyChange></FrequencyChanges></Clock>\n",2016-12-23 14:07,84.839,1,-463581712,12-23-2016,14:07:36,6:07:36,66,i,,,,3,3,15,,,,,,,,,,,,0,,-999999,18,195689,1,454,196143,aexppro112,block2,,nv audio/i1_24k.wav
nv,11,1,"<?xml version=""1.0""?>\n<Clock xmlns:dt=""urn:schemas-microsoft-com:datatypes""><Description dt:dt=""string"">E-Prime Primary Realtime Clock</Description><StartTime><Timestamp dt:dt=""int"">0</Timestamp><DateUtc dt:dt=""string"">2016-12-23T06:07:35Z</DateUtc></StartTime><FrequencyChanges><FrequencyChange><Frequency dt:dt=""r8"">3579545</Frequency><Timestamp dt:dt=""r8"">68255163593</Timestamp><Current dt:dt=""r8"">0</Current><DateUtc dt:dt=""string"">2016-12-23T06:07:35Z</DateUtc></FrequencyChange></FrequencyChanges></Clock>\n",2016-12-23 14:07,84.839,1,-463581712,12-23-2016,14:07:36,6:07:36,67,a,,,,1,4,16,,,,,,,,,,,,0,,-999999,30,196679,1,783,197462,aexppro112,block2,,nv audio/a1_24k.wav
nv,11,1,"<?xml version=""1.0""?>\n<Clock xmlns:dt=""urn:schemas-microsoft-com:datatypes""><Description dt:dt=""string"">E-Prime Primary Realtime Clock</Description><StartTime><Timestamp dt:dt=""int"">0</Timestamp><DateUtc dt:dt=""string"">2016-12-23T06:07:35Z</DateUtc></StartTime><FrequencyChanges><FrequencyChange><Frequency dt:dt=""r8"">3579545</Frequency><Timestamp dt:dt=""r8"">68255163593</Timestamp><Current dt:dt=""r8"">0</Current><DateUtc dt:dt=""string"">2016-12-23T06:07:35Z</DateUtc></FrequencyChange></FrequencyChanges></Clock>\n",2016-12-23 14:07,84.839,1,-463581712,12-23-2016,14:07:36,6:07:36,68,u,,,,4,4,17,,,,,,,,,,,,0,,-999999,19,197988,1,705,198693,aexppro112,block2,,nv audio/u1_24k.wav
nv,11,1,"<?xml version=""1.0""?>\n<Clock xmlns:dt=""urn:schemas-microsoft-com:datatypes""><Description dt:dt=""string"">E-Prime Primary Realtime Clock</Description><StartTime><Timestamp dt:dt=""int"">0</Timestamp><DateUtc dt:dt=""string"">2016-12-23T06:07:35Z</DateUtc></StartTime><FrequencyChanges><FrequencyChange><Frequency dt:dt=""r8"">3579545</Frequency><Timestamp dt:dt=""r8"">68255163593</Timestamp><Current dt:dt=""r8"">0</Current><DateUtc dt:dt=""string"">2016-12-23T06:07:35Z</DateUtc></FrequencyChange></FrequencyChanges></Clock>\n",2016-12-23 14:07,84.839,1,-463581712,12-23-2016,14:07:36,6:07:36,69,e,,,,2,4,18,,,,,,,,,,,,0,,-999999,18,199225,1,658,199883,aexppro112,block2,,nv audio/e1_24k.wav
nv,11,1,"<?xml version=""1.0""?>\n<Clock xmlns:dt=""urn:schemas-microsoft-com:datatypes""><Description dt:dt=""string"">E-Prime Primary Realtime Clock</Description><StartTime><Timestamp dt:dt=""int"">0</Timestamp><DateUtc dt:dt=""string"">2016-12-23T06:07:35Z</DateUtc></StartTime><FrequencyChanges><FrequencyChange><Frequency dt:dt=""r8"">3579545</Frequency><Timestamp dt:dt=""r8"">68255163593</Timestamp><Current dt:dt=""r8"">0</Current><DateUtc dt:dt=""string"">2016-12-23T06:07:35Z</DateUtc></FrequencyChange></FrequencyChanges></Clock>\n",2016-12-23 14:07,84.839,1,-463581712,12-23-2016,14:07:36,6:07:36,70,i,,,,3,4,19,,,,,,,,,,,,0,,-999999,42,200439,1,599,201038,aexppro112,block2,,nv audio/i1_24k.wav
nv,11,1,"<?xml version=""1.0""?>\n<Clock xmlns:dt=""urn:schemas-microsoft-com:datatypes""><Description dt:dt=""string"">E-Prime Primary Realtime Clock</Description><StartTime><Timestamp dt:dt=""int"">0</Timestamp><DateUtc dt:dt=""string"">2016-12-23T06:07:35Z</DateUtc></StartTime><FrequencyChanges><FrequencyChange><Frequency dt:dt=""r8"">3579545</Frequency><Timestamp dt:dt=""r8"">68255163593</Timestamp><Current dt:dt=""r8"">0</Current><DateUtc dt:dt=""string"">2016-12-23T06:07:35Z</DateUtc></FrequencyChange></FrequencyChanges></Clock>\n",2016-12-23 14:07,84.839,1,-463581712,12-23-2016,14:07:36,6:07:36,71,v,,,,5,4,20,,,,,,,,,,,,0,,-999999,19,201571,1,1003,202574,aexppro112,block2,,nv audio/y1_24k.wav
nv,11,1,"<?xml version=""1.0""?>\n<Clock xmlns:dt=""urn:schemas-microsoft-com:datatypes""><Description dt:dt=""string"">E-Prime Primary Realtime Clock</Description><StartTime><Timestamp dt:dt=""int"">0</Timestamp><DateUtc dt:dt=""string"">2016-12-23T06:07:35Z</DateUtc></StartTime><FrequencyChanges><FrequencyChange><Frequency dt:dt=""r8"">3579545</Frequency><Timestamp dt:dt=""r8"">68255163593</Timestamp><Current dt:dt=""r8"">0</Current><DateUtc dt:dt=""string"">2016-12-23T06:07:35Z</DateUtc></FrequencyChange></FrequencyChanges></Clock>\n",2016-12-23 14:07,84.839,1,-463581712,12-23-2016,14:07:36,6:07:36,72,u,,,,4,5,21,,,,,,,,,,,,0,,-999999,30,203115,1,639,203754,aexppro112,block2,,nv audio/u1_24k.wav
nv,11,1,"<?xml version=""1.0""?>\n<Clock xmlns:dt=""urn:schemas-microsoft-com:datatypes""><Description dt:dt=""string"">E-Prime Primary Realtime Clock</Description><StartTime><Timestamp dt:dt=""int"">0</Timestamp><DateUtc dt:dt=""string"">2016-12-23T06:07:35Z</DateUtc></StartTime><FrequencyChanges><FrequencyChange><Frequency dt:dt=""r8"">3579545</Frequency><Timestamp dt:dt=""r8"">68255163593</Timestamp><Current dt:dt=""r8"">0</Current><DateUtc dt:dt=""string"">2016-12-23T06:07:35Z</DateUtc></FrequencyChange></FrequencyChanges></Clock>\n",2016-12-23 14:07,84.839,1,-463581712,12-23-2016,14:07:36,6:07:36,73,e,,,,2,5,22,,,,,,,,,,,,0,,-999999,19,204282,1,635,204917,aexppro112,block2,,nv audio/e1_24k.wav
nv,11,1,"<?xml version=""1.0""?>\n<Clock xmlns:dt=""urn:schemas-microsoft-com:datatypes""><Description dt:dt=""string"">E-Prime Primary Realtime Clock</Description><StartTime><Timestamp dt:dt=""int"">0</Timestamp><DateUtc dt:dt=""string"">2016-12-23T06:07:35Z</DateUtc></StartTime><FrequencyChanges><FrequencyChange><Frequency dt:dt=""r8"">3579545</Frequency><Timestamp dt:dt=""r8"">68255163593</Timestamp><Current dt:dt=""r8"">0</Current><DateUtc dt:dt=""string"">2016-12-23T06:07:35Z</DateUtc></FrequencyChange></FrequencyChanges></Clock>\n",2016-12-23 14:07,84.839,1,-463581712,12-23-2016,14:07:36,6:07:36,74,i,,,,3,5,23,,,,,,,,,,,,0,,-999999,31,205461,1,861,206322,aexppro112,block2,,nv audio/i1_24k.wav
nv,11,1,"<?xml version=""1.0""?>\n<Clock xmlns:dt=""urn:schemas-microsoft-com:datatypes""><Description dt:dt=""string"">E-Prime Primary Realtime Clock</Description><StartTime><Timestamp dt:dt=""int"">0</Timestamp><DateUtc dt:dt=""string"">2016-12-23T06:07:35Z</DateUtc></StartTime><FrequencyChanges><FrequencyChange><Frequency dt:dt=""r8"">3579545</Frequency><Timestamp dt:dt=""r8"">68255163593</Timestamp><Current dt:dt=""r8"">0</Current><DateUtc dt:dt=""string"">2016-12-23T06:07:35Z</DateUtc></FrequencyChange></FrequencyChanges></Clock>\n",2016-12-23 14:07,84.839,1,-463581712,12-23-2016,14:07:36,6:07:36,75,a,,,,1,5,24,,,,,,,,,,,,0,,-999999,19,206852,1,626,207478,aexppro112,block2,,nv audio/a1_24k.wav
nv,11,1,"<?xml version=""1.0""?>\n<Clock xmlns:dt=""urn:schemas-microsoft-com:datatypes""><Description dt:dt=""string"">E-Prime Primary Realtime Clock</Description><StartTime><Timestamp dt:dt=""int"">0</Timestamp><DateUtc dt:dt=""string"">2016-12-23T06:07:35Z</DateUtc></StartTime><FrequencyChanges><FrequencyChange><Frequency dt:dt=""r8"">3579545</Frequency><Timestamp dt:dt=""r8"">68255163593</Timestamp><Current dt:dt=""r8"">0</Current><DateUtc dt:dt=""string"">2016-12-23T06:07:35Z</DateUtc></FrequencyChange></FrequencyChanges></Clock>\n",2016-12-23 14:07,84.839,1,-463581712,12-23-2016,14:07:36,6:07:36,76,v,,,,5,5,25,,,,,,,,,,,,0,,-999999,19,208007,1,820,208827,aexppro112,block2,,nv audio/y1_24k.wav
nv,11,1,"<?xml version=""1.0""?>\n<Clock xmlns:dt=""urn:schemas-microsoft-com:datatypes""><Description dt:dt=""string"">E-Prime Primary Realtime Clock</Description><StartTime><Timestamp dt:dt=""int"">0</Timestamp><DateUtc dt:dt=""string"">2016-12-23T06:07:35Z</DateUtc></StartTime><FrequencyChanges><FrequencyChange><Frequency dt:dt=""r8"">3579545</Frequency><Timestamp dt:dt=""r8"">68255163593</Timestamp><Current dt:dt=""r8"">0</Current><DateUtc dt:dt=""string"">2016-12-23T06:07:35Z</DateUtc></FrequencyChange></FrequencyChanges></Clock>\n",2016-12-23 14:07,84.839,1,-463581712,12-23-2016,14:07:36,6:07:36,77,a,,,,1,6,26,,,,,,,,,,,,0,,-999999,19,209351,1,812,210163,aexppro112,block2,,nv audio/a1_24k.wav
nv,11,1,"<?xml version=""1.0""?>\n<Clock xmlns:dt=""urn:schemas-microsoft-com:datatypes""><Description dt:dt=""string"">E-Prime Primary Realtime Clock</Description><StartTime><Timestamp dt:dt=""int"">0</Timestamp><DateUtc dt:dt=""string"">2016-12-23T06:07:35Z</DateUtc></StartTime><FrequencyChanges><FrequencyChange><Frequency dt:dt=""r8"">3579545</Frequency><Timestamp dt:dt=""r8"">68255163593</Timestamp><Current dt:dt=""r8"">0</Current><DateUtc dt:dt=""string"">2016-12-23T06:07:35Z</DateUtc></FrequencyChange></FrequencyChanges></Clock>\n",2016-12-23 14:07,84.839,1,-463581712,12-23-2016,14:07:36,6:07:36,78,u,,,,4,6,27,,,,,,,,,,,,0,,-999999,18,210694,1,621,211315,aexppro112,block2,,nv audio/u1_24k.wav
nv,11,1,"<?xml version=""1.0""?>\n<Clock xmlns:dt=""urn:schemas-microsoft-com:datatypes""><Description dt:dt=""string"">E-Prime Primary Realtime Clock</Description><StartTime><Timestamp dt:dt=""int"">0</Timestamp><DateUtc dt:dt=""string"">2016-12-23T06:07:35Z</DateUtc></StartTime><FrequencyChanges><FrequencyChange><Frequency dt:dt=""r8"">3579545</Frequency><Timestamp dt:dt=""r8"">68255163593</Timestamp><Current dt:dt=""r8"">0</Current><DateUtc dt:dt=""string"">2016-12-23T06:07:35Z</DateUtc></FrequencyChange></FrequencyChanges></Clock>\n",2016-12-23 14:07,84.839,1,-463581712,12-23-2016,14:07:36,6:07:36,79,v,,,,5,6,28,,,,,,,,,,,,0,,-999999,42,211861,1,1028,212889,aexppro112,block2,,nv audio/y1_24k.wav
nv,11,1,"<?xml version=""1.0""?>\n<Clock xmlns:dt=""urn:schemas-microsoft-com:datatypes""><Description dt:dt=""string"">E-Prime Primary Realtime Clock</Description><StartTime><Timestamp dt:dt=""int"">0</Timestamp><DateUtc dt:dt=""string"">2016-12-23T06:07:35Z</DateUtc></StartTime><FrequencyChanges><FrequencyChange><Frequency dt:dt=""r8"">3579545</Frequency><Timestamp dt:dt=""r8"">68255163593</Timestamp><Current dt:dt=""r8"">0</Current><DateUtc dt:dt=""string"">2016-12-23T06:07:35Z</DateUtc></FrequencyChange></FrequencyChanges></Clock>\n",2016-12-23 14:07,84.839,1,-463581712,12-23-2016,14:07:36,6:07:36,80,i,,,,3,6,29,,,,,,,,,,,,0,,-999999,31,213429,1,854,214283,aexppro112,block2,,nv audio/i1_24k.wav
nv,11,1,"<?xml version=""1.0""?>\n<Clock xmlns:dt=""urn:schemas-microsoft-com:datatypes""><Description dt:dt=""string"">E-Prime Primary Realtime Clock</Description><StartTime><Timestamp dt:dt=""int"">0</Timestamp><DateUtc dt:dt=""string"">2016-12-23T06:07:35Z</DateUtc></StartTime><FrequencyChanges><FrequencyChange><Frequency dt:dt=""r8"">3579545</Frequency><Timestamp dt:dt=""r8"">68255163593</Timestamp><Current dt:dt=""r8"">0</Current><DateUtc dt:dt=""string"">2016-12-23T06:07:35Z</DateUtc></FrequencyChange></FrequencyChanges></Clock>\n",2016-12-23 14:07,84.839,1,-463581712,12-23-2016,14:07:36,6:07:36,81,e,,,,2,6,30,,,,,,,,,,,,0,,-999999,31,214820,1,648,215468,aexppro112,block2,,nv audio/e1_24k.wav
nv,11,1,"<?xml version=""1.0""?>\n<Clock xmlns:dt=""urn:schemas-microsoft-com:datatypes""><Description dt:dt=""string"">E-Prime Primary Realtime Clock</Description><StartTime><Timestamp dt:dt=""int"">0</Timestamp><DateUtc dt:dt=""string"">2016-12-23T06:07:35Z</DateUtc></StartTime><FrequencyChanges><FrequencyChange><Frequency dt:dt=""r8"">3579545</Frequency><Timestamp dt:dt=""r8"">68255163593</Timestamp><Current dt:dt=""r8"">0</Current><DateUtc dt:dt=""string"">2016-12-23T06:07:35Z</DateUtc></FrequencyChange></FrequencyChanges></Clock>\n",2016-12-23 14:07,84.839,1,-463581712,12-23-2016,14:07:36,6:07:36,82,u,,,,4,7,31,,,,,,,,,,,,0,,-999999,18,215998,1,682,216680,aexppro112,block2,,nv audio/u1_24k.wav
nv,11,1,"<?xml version=""1.0""?>\n<Clock xmlns:dt=""urn:schemas-microsoft-com:datatypes""><Description dt:dt=""string"">E-Prime Primary Realtime Clock</Description><StartTime><Timestamp dt:dt=""int"">0</Timestamp><DateUtc dt:dt=""string"">2016-12-23T06:07:35Z</DateUtc></StartTime><FrequencyChanges><FrequencyChange><Frequency dt:dt=""r8"">3579545</Frequency><Timestamp dt:dt=""r8"">68255163593</Timestamp><Current dt:dt=""r8"">0</Current><DateUtc dt:dt=""string"">2016-12-23T06:07:35Z</DateUtc></FrequencyChange></FrequencyChanges></Clock>\n",2016-12-23 14:07,84.839,1,-463581712,12-23-2016,14:07:36,6:07:36,83,v,,,,5,7,32,,,,,,,,,,,,0,,-999999,30,217224,1,992,218216,aexppro112,block2,,nv audio/y1_24k.wav
nv,11,1,"<?xml version=""1.0""?>\n<Clock xmlns:dt=""urn:schemas-microsoft-com:datatypes""><Description dt:dt=""string"">E-Prime Primary Realtime Clock</Description><StartTime><Timestamp dt:dt=""int"">0</Timestamp><DateUtc dt:dt=""string"">2016-12-23T06:07:35Z</DateUtc></StartTime><FrequencyChanges><FrequencyChange><Frequency dt:dt=""r8"">3579545</Frequency><Timestamp dt:dt=""r8"">68255163593</Timestamp><Current dt:dt=""r8"">0</Current><DateUtc dt:dt=""string"">2016-12-23T06:07:35Z</DateUtc></FrequencyChange></FrequencyChanges></Clock>\n",2016-12-23 14:07,84.839,1,-463581712,12-23-2016,14:07:36,6:07:36,84,i,,,,3,7,33,,,,,,,,,,,,0,,-999999,31,218757,1,1023,219780,aexppro112,block2,,nv audio/i1_24k.wav
nv,11,1,"<?xml version=""1.0""?>\n<Clock xmlns:dt=""urn:schemas-microsoft-com:datatypes""><Description dt:dt=""string"">E-Prime Primary Realtime Clock</Description><StartTime><Timestamp dt:dt=""int"">0</Timestamp><DateUtc dt:dt=""string"">2016-12-23T06:07:35Z</DateUtc></StartTime><FrequencyChanges><FrequencyChange><Frequency dt:dt=""r8"">3579545</Frequency><Timestamp dt:dt=""r8"">68255163593</Timestamp><Current dt:dt=""r8"">0</Current><DateUtc dt:dt=""string"">2016-12-23T06:07:35Z</DateUtc></FrequencyChange></FrequencyChanges></Clock>\n",2016-12-23 14:07,84.839,1,-463581712,12-23-2016,14:07:36,6:07:36,85,a,,,,1,7,34,,,,,,,,,,,,0,,-999999,19,220313,1,674,220987,aexppro112,block2,,nv audio/a1_24k.wav
nv,11,1,"<?xml version=""1.0""?>\n<Clock xmlns:dt=""urn:schemas-microsoft-com:datatypes""><Description dt:dt=""string"">E-Prime Primary Realtime Clock</Description><StartTime><Timestamp dt:dt=""int"">0</Timestamp><DateUtc dt:dt=""string"">2016-12-23T06:07:35Z</DateUtc></StartTime><FrequencyChanges><FrequencyChange><Frequency dt:dt=""r8"">3579545</Frequency><Timestamp dt:dt=""r8"">68255163593</Timestamp><Current dt:dt=""r8"">0</Current><DateUtc dt:dt=""string"">2016-12-23T06:07:35Z</DateUtc></FrequencyChange></FrequencyChanges></Clock>\n",2016-12-23 14:07,84.839,1,-463581712,12-23-2016,14:07:36,6:07:36,86,e,,,,2,7,35,,,,,,,,,,,,0,,-999999,19,221515,1,824,222339,aexppro112,block2,,nv audio/e1_24k.wav
nv,11,1,"<?xml version=""1.0""?>\n<Clock xmlns:dt=""urn:schemas-microsoft-com:datatypes""><Description dt:dt=""string"">E-Prime Primary Realtime Clock</Description><StartTime><Timestamp dt:dt=""int"">0</Timestamp><DateUtc dt:dt=""string"">2016-12-23T06:07:35Z</DateUtc></StartTime><FrequencyChanges><FrequencyChange><Frequency dt:dt=""r8"">3579545</Frequency><Timestamp dt:dt=""r8"">68255163593</Timestamp><Current dt:dt=""r8"">0</Current><DateUtc dt:dt=""string"">2016-12-23T06:07:35Z</DateUtc></FrequencyChange></FrequencyChanges></Clock>\n",2016-12-23 14:07,84.839,1,-463581712,12-23-2016,14:07:36,6:07:36,87,i,,,,3,8,36,,,,,,,,,,,,0,,-999999,30,222882,1,585,223467,aexppro112,block2,,nv audio/i1_24k.wav
nv,11,1,"<?xml version=""1.0""?>\n<Clock xmlns:dt=""urn:schemas-microsoft-com:datatypes""><Description dt:dt=""string"">E-Prime Primary Realtime Clock</Description><StartTime><Timestamp dt:dt=""int"">0</Timestamp><DateUtc dt:dt=""string"">2016-12-23T06:07:35Z</DateUtc></StartTime><FrequencyChanges><FrequencyChange><Frequency dt:dt=""r8"">3579545</Frequency><Timestamp dt:dt=""r8"">68255163593</Timestamp><Current dt:dt=""r8"">0</Current><DateUtc dt:dt=""string"">2016-12-23T06:07:35Z</DateUtc></FrequencyChange></FrequencyChanges></Clock>\n",2016-12-23 14:07,84.839,1,-463581712,12-23-2016,14:07:36,6:07:36,88,u,,,,4,8,37,,,,,,,,,,,,0,,-999999,19,223990,1,491,224481,aexppro112,block2,,nv audio/u1_24k.wav
nv,11,1,"<?xml version=""1.0""?>\n<Clock xmlns:dt=""urn:schemas-microsoft-com:datatypes""><Description dt:dt=""string"">E-Prime Primary Realtime Clock</Description><StartTime><Timestamp dt:dt=""int"">0</Timestamp><DateUtc dt:dt=""string"">2016-12-23T06:07:35Z</DateUtc></StartTime><FrequencyChanges><FrequencyChange><Frequency dt:dt=""r8"">3579545</Frequency><Timestamp dt:dt=""r8"">68255163593</Timestamp><Current dt:dt=""r8"">0</Current><DateUtc dt:dt=""string"">2016-12-23T06:07:35Z</DateUtc></FrequencyChange></FrequencyChanges></Clock>\n",2016-12-23 14:07,84.839,1,-463581712,12-23-2016,14:07:36,6:07:36,89,v,,,,5,8,38,,,,,,,,,,,,0,,-999999,19,225004,1,1091,226095,aexppro112,block2,,nv audio/y1_24k.wav
nv,11,1,"<?xml version=""1.0""?>\n<Clock xmlns:dt=""urn:schemas-microsoft-com:datatypes""><Description dt:dt=""string"">E-Prime Primary Realtime Clock</Description><StartTime><Timestamp dt:dt=""int"">0</Timestamp><DateUtc dt:dt=""string"">2016-12-23T06:07:35Z</DateUtc></StartTime><FrequencyChanges><FrequencyChange><Frequency dt:dt=""r8"">3579545</Frequency><Timestamp dt:dt=""r8"">68255163593</Timestamp><Current dt:dt=""r8"">0</Current><DateUtc dt:dt=""string"">2016-12-23T06:07:35Z</DateUtc></FrequencyChange></FrequencyChanges></Clock>\n",2016-12-23 14:07,84.839,1,-463581712,12-23-2016,14:07:36,6:07:36,90,e,,,,2,8,39,,,,,,,,,,,,0,,-999999,42,226642,1,1301,227943,aexppro112,block2,,nv audio/e1_24k.wav
nv,11,1,"<?xml version=""1.0""?>\n<Clock xmlns:dt=""urn:schemas-microsoft-com:datatypes""><Description dt:dt=""string"">E-Prime Primary Realtime Clock</Description><StartTime><Timestamp dt:dt=""int"">0</Timestamp><DateUtc dt:dt=""string"">2016-12-23T06:07:35Z</DateUtc></StartTime><FrequencyChanges><FrequencyChange><Frequency dt:dt=""r8"">3579545</Frequency><Timestamp dt:dt=""r8"">68255163593</Timestamp><Current dt:dt=""r8"">0</Current><DateUtc dt:dt=""string"">2016-12-23T06:07:35Z</DateUtc></FrequencyChange></FrequencyChanges></Clock>\n",2016-12-23 14:07,84.839,1,-463581712,12-23-2016,14:07:36,6:07:36,91,a,,,,1,8,40,,,,,,,,,,,,0,,-999999,18,228469,1,700,229169,aexppro112,block2,,nv audio/a1_24k.wav
nv,11,1,"<?xml version=""1.0""?>\n<Clock xmlns:dt=""urn:schemas-microsoft-com:datatypes""><Description dt:dt=""string"">E-Prime Primary Realtime Clock</Description><StartTime><Timestamp dt:dt=""int"">0</Timestamp><DateUtc dt:dt=""string"">2016-12-23T06:07:35Z</DateUtc></StartTime><FrequencyChanges><FrequencyChange><Frequency dt:dt=""r8"">3579545</Frequency><Timestamp dt:dt=""r8"">68255163593</Timestamp><Current dt:dt=""r8"">0</Current><DateUtc dt:dt=""string"">2016-12-23T06:07:35Z</DateUtc></FrequencyChange></FrequencyChanges></Clock>\n",2016-12-23 14:07,84.839,1,-463581712,12-23-2016,14:07:36,6:07:36,92,e,,,,2,9,41,,,,,,,,,,,,0,,-999999,19,229695,1,654,230349,aexppro112,block2,,nv audio/e1_24k.wav
nv,11,1,"<?xml version=""1.0""?>\n<Clock xmlns:dt=""urn:schemas-microsoft-com:datatypes""><Description dt:dt=""string"">E-Prime Primary Realtime Clock</Description><StartTime><Timestamp dt:dt=""int"">0</Timestamp><DateUtc dt:dt=""string"">2016-12-23T06:07:35Z</DateUtc></StartTime><FrequencyChanges><FrequencyChange><Frequency dt:dt=""r8"">3579545</Frequency><Timestamp dt:dt=""r8"">68255163593</Timestamp><Current dt:dt=""r8"">0</Current><DateUtc dt:dt=""string"">2016-12-23T06:07:35Z</DateUtc></FrequencyChange></FrequencyChanges></Clock>\n",2016-12-23 14:07,84.839,1,-463581712,12-23-2016,14:07:36,6:07:36,93,i,,,,3,9,42,,,,,,,,,,,,0,,-999999,19,230874,1,460,231334,aexppro112,block2,,nv audio/i1_24k.wav
nv,11,1,"<?xml version=""1.0""?>\n<Clock xmlns:dt=""urn:schemas-microsoft-com:datatypes""><Description dt:dt=""string"">E-Prime Primary Realtime Clock</Description><StartTime><Timestamp dt:dt=""int"">0</Timestamp><DateUtc dt:dt=""string"">2016-12-23T06:07:35Z</DateUtc></StartTime><FrequencyChanges><FrequencyChange><Frequency dt:dt=""r8"">3579545</Frequency><Timestamp dt:dt=""r8"">68255163593</Timestamp><Current dt:dt=""r8"">0</Current><DateUtc dt:dt=""string"">2016-12-23T06:07:35Z</DateUtc></FrequencyChange></FrequencyChanges></Clock>\n",2016-12-23 14:07,84.839,1,-463581712,12-23-2016,14:07:36,6:07:36,94,u,,,,4,9,43,,,,,,,,,,,,0,,-999999,19,231864,1,479,232343,aexppro112,block2,,nv audio/u1_24k.wav
nv,11,1,"<?xml version=""1.0""?>\n<Clock xmlns:dt=""urn:schemas-microsoft-com:datatypes""><Description dt:dt=""string"">E-Prime Primary Realtime Clock</Description><StartTime><Timestamp dt:dt=""int"">0</Timestamp><DateUtc dt:dt=""string"">2016-12-23T06:07:35Z</DateUtc></StartTime><FrequencyChanges><FrequencyChange><Frequency dt:dt=""r8"">3579545</Frequency><Timestamp dt:dt=""r8"">68255163593</Timestamp><Current dt:dt=""r8"">0</Current><DateUtc dt:dt=""string"">2016-12-23T06:07:35Z</DateUtc></FrequencyChange></FrequencyChanges></Clock>\n",2016-12-23 14:07,84.839,1,-463581712,12-23-2016,14:07:36,6:07:36,95,v,,,,5,9,44,,,,,,,,,,,,0,,-999999,19,232866,1,732,233598,aexppro112,block2,,nv audio/y1_24k.wav
nv,11,1,"<?xml version=""1.0""?>\n<Clock xmlns:dt=""urn:schemas-microsoft-com:datatypes""><Description dt:dt=""string"">E-Prime Primary Realtime Clock</Description><StartTime><Timestamp dt:dt=""int"">0</Timestamp><DateUtc dt:dt=""string"">2016-12-23T06:07:35Z</DateUtc></StartTime><FrequencyChanges><FrequencyChange><Frequency dt:dt=""r8"">3579545</Frequency><Timestamp dt:dt=""r8"">68255163593</Timestamp><Current dt:dt=""r8"">0</Current><DateUtc dt:dt=""string"">2016-12-23T06:07:35Z</DateUtc></FrequencyChange></FrequencyChanges></Clock>\n",2016-12-23 14:07,84.839,1,-463581712,12-23-2016,14:07:36,6:07:36,96,a,,,,1,9,45,,,,,,,,,,,,0,,-999999,19,234127,1,659,234786,aexppro112,block2,,nv audio/a1_24k.wav
nv,11,1,"<?xml version=""1.0""?>\n<Clock xmlns:dt=""urn:schemas-microsoft-com:datatypes""><Description dt:dt=""string"">E-Prime Primary Realtime Clock</Description><StartTime><Timestamp dt:dt=""int"">0</Timestamp><DateUtc dt:dt=""string"">2016-12-23T06:07:35Z</DateUtc></StartTime><FrequencyChanges><FrequencyChange><Frequency dt:dt=""r8"">3579545</Frequency><Timestamp dt:dt=""r8"">68255163593</Timestamp><Current dt:dt=""r8"">0</Current><DateUtc dt:dt=""string"">2016-12-23T06:07:35Z</DateUtc></FrequencyChange></FrequencyChanges></Clock>\n",2016-12-23 14:07,84.839,1,-463581712,12-23-2016,14:07:36,6:07:36,97,e,,,,2,10,46,,,,,,,,,,,,0,,-999999,18,235317,1,760,236077,aexppro112,block2,,nv audio/e1_24k.wav
nv,11,1,"<?xml version=""1.0""?>\n<Clock xmlns:dt=""urn:schemas-microsoft-com:datatypes""><Description dt:dt=""string"">E-Prime Primary Realtime Clock</Description><StartTime><Timestamp dt:dt=""int"">0</Timestamp><DateUtc dt:dt=""string"">2016-12-23T06:07:35Z</DateUtc></StartTime><FrequencyChanges><FrequencyChange><Frequency dt:dt=""r8"">3579545</Frequency><Timestamp dt:dt=""r8"">68255163593</Timestamp><Current dt:dt=""r8"">0</Current><DateUtc dt:dt=""string"">2016-12-23T06:07:35Z</DateUtc></FrequencyChange></FrequencyChanges></Clock>\n",2016-12-23 14:07,84.839,1,-463581712,12-23-2016,14:07:36,6:07:36,98,a,,,,1,10,47,,,,,,,,,,,,0,,-999999,42,236626,1,746,237372,aexppro112,block2,,nv audio/a1_24k.wav
nv,11,1,"<?xml version=""1.0""?>\n<Clock xmlns:dt=""urn:schemas-microsoft-com:datatypes""><Description dt:dt=""string"">E-Prime Primary Realtime Clock</Description><StartTime><Timestamp dt:dt=""int"">0</Timestamp><DateUtc dt:dt=""string"">2016-12-23T06:07:35Z</DateUtc></StartTime><FrequencyChanges><FrequencyChange><Frequency dt:dt=""r8"">3579545</Frequency><Timestamp dt:dt=""r8"">68255163593</Timestamp><Current dt:dt=""r8"">0</Current><DateUtc dt:dt=""string"">2016-12-23T06:07:35Z</DateUtc></FrequencyChange></FrequencyChanges></Clock>\n",2016-12-23 14:07,84.839,1,-463581712,12-23-2016,14:07:36,6:07:36,99,i,,,,3,10,48,,,,,,,,,,,,0,,-999999,31,237911,1,556,238467,aexppro112,block2,,nv audio/i1_24k.wav
nv,11,1,"<?xml version=""1.0""?>\n<Clock xmlns:dt=""urn:schemas-microsoft-com:datatypes""><Description dt:dt=""string"">E-Prime Primary Realtime Clock</Description><StartTime><Timestamp dt:dt=""int"">0</Timestamp><DateUtc dt:dt=""string"">2016-12-23T06:07:35Z</DateUtc></StartTime><FrequencyChanges><FrequencyChange><Frequency dt:dt=""r8"">3579545</Frequency><Timestamp dt:dt=""r8"">68255163593</Timestamp><Current dt:dt=""r8"">0</Current><DateUtc dt:dt=""string"">2016-12-23T06:07:35Z</DateUtc></FrequencyChange></FrequencyChanges></Clock>\n",2016-12-23 14:07,84.839,1,-463581712,12-23-2016,14:07:36,6:07:36,100,u,,,,4,10,49,,,,,,,,,,,,0,,-999999,31,239007,1,603,239610,aexppro112,block2,,nv audio/u1_24k.wav
nv,11,1,"<?xml version=""1.0""?>\n<Clock xmlns:dt=""urn:schemas-microsoft-com:datatypes""><Description dt:dt=""string"">E-Prime Primary Realtime Clock</Description><StartTime><Timestamp dt:dt=""int"">0</Timestamp><DateUtc dt:dt=""string"">2016-12-23T06:07:35Z</DateUtc></StartTime><FrequencyChanges><FrequencyChange><Frequency dt:dt=""r8"">3579545</Frequency><Timestamp dt:dt=""r8"">68255163593</Timestamp><Current dt:dt=""r8"">0</Current><DateUtc dt:dt=""string"">2016-12-23T06:07:35Z</DateUtc></FrequencyChange></FrequencyChanges></Clock>\n",2016-12-23 14:07,84.839,1,-463581712,12-23-2016,14:07:36,6:07:36,101,v,,,,5,10,50,,,,,,,,,,,,0,,-999999,30,240150,1,554,240704,aexppro112,block2,,nv audio/y1_24k.wav
